time,seconds_elapsed,z,y,x
1684062000874674900,0.0360751953125,-7.73827864222251e-11,1.372733475440151e-10,1.694455450920188e-10
1684062000884717000,0.046117431640625,0.00925534961190448,0.8423357009453822,0.16466963300300191
1684062000894759300,0.05615966796875,0.5787478684729037,1.3578195572782932,-0.11389017106832565
1684062000904801600,0.0662021484375,0.7101706264664186,1.0427503584708364,-0.9224444628937153
1684062000914844100,0.076244384765625,1.3911510706213521,0.3148570060304889,-2.397346973443813
1684062000924886400,0.086286865234375,2.7774357796126212,0.001509666527319689,-3.150253534455416
1684062000934928600,0.096328857421875,3.753719568171988,-0.111722946122368,-3.3164136410658904
1684062000944970900,0.106371337890625,4.132138252102439,-0.1467208862165175,-4.305329322763884
1684062000955013300,0.11641357421875,3.7386965752085057,1.249789953104756,-2.979427099165565
1684062000965055600,0.1264560546875,3.6213612555537136,2.0804052352819853,-3.549994707110997
1684062000975097800,0.136498291015625,4.096377372752747,2.5330471992495376,-4.588258266319058
1684062000985140100,0.14654052734375,4.090714931361143,2.4718985557421176,-4.716602802381506
1684062000995182600,0.1565830078125,3.8131299019473803,2.001473426829082,-4.749129295246122
1684062001005224900,0.166625244140625,4.656890392261435,1.7631101608724564,-5.191340446411527
1684062001015267200,0.176667724609375,5.183802127789828,1.848771572025221,-4.993906974734286
1684062001025309400,0.186709716796875,5.745288371962168,2.1970615385412158,-4.731830120024987
1684062001035351700,0.196752197265625,5.7953925132749795,2.3891205787058096,-4.514711856827653
1684062001045394100,0.20679443359375,5.078526496807068,2.221457958323989,-3.952065467806927
1684062001055436500,0.2168369140625,4.617998123202802,2.2293467521841466,-3.1492972374861212
1684062001065478800,0.226879150390625,4.441538333908795,2.0147736073490075,-2.4714293480572014
1684062001075520900,0.23692138671875,4.075769901283105,1.9509336949404776,-2.321370601633143
1684062001085563300,0.246963623046875,3.3790678978174506,2.0712568759399512,-2.0331673622341127
1684062001095605600,0.257006103515625,2.718461513587824,1.939171790986068,-1.6279349326296175
1684062001105648000,0.26704833984375,2.1412682532795255,1.6813147066970127,-1.3030676841247935
1684062001115690200,0.277090576171875,1.9540853501545878,1.471253395227913,-0.9354910850358219
1684062001125732600,0.2871328125,2.150099277422029,1.0877916812319464,-0.5817022322962364
1684062001135774900,0.29717529296875,2.2462058067553006,1.023110389728395,-1.1890907288749317
1684062001145817300,0.3072177734375,1.809378147090612,1.3038539885501041,-1.404157161618118
1684062001155859400,0.317259765625,0.9453763960859379,1.4593322276948288,-1.5613307953813549
1684062001165901700,0.32730224609375,-0.05650377267183169,1.8453836440316327,-2.140026092478968
1684062001175944100,0.337344482421875,-1.5364470481455026,2.315718173893049,-1.9035758973561534
1684062001185986600,0.347386962890625,-2.791551589882995,2.467323303142022,-1.3149871826414707
1684062001196028600,0.357428955078125,-3.3099677563244008,2.373664140805944,-1.0184392928992636
1684062001206071000,0.367471435546875,-3.2784798145388656,2.4254179001742138,-0.8953437805175759
1684062001216113300,0.377513671875,-2.835853338092627,2.671760082381509,-1.0279674530521794
1684062001226155600,0.38755615234375,-2.422689199491767,3.134394407307177,-1.5971622466439717
1684062001236198100,0.397598388671875,-2.484145164545891,3.153427362416161,-1.7920503617681491
1684062001246240200,0.407640625,-2.8816483021169317,3.2723994256492697,-1.2787866592511825
1684062001256282600,0.417682861328125,-2.4418709278382953,3.4337577819834877,-1.5768890380058442
1684062001266324900,0.427725341796875,-1.6469271182807097,3.1326868535172974,-1.4489040374970878
1684062001276367300,0.437767578125,-0.9730501173470588,2.6708772182324054,-1.0033245087138183
1684062001286409400,0.447809814453125,-0.3275279998858177,2.4276607038013123,-0.7291402816468917
1684062001296451800,0.45785205078125,0.25925016408438767,2.290346622377929,-0.46033859265836913
1684062001306494100,0.46789453125,0.4309902190150634,1.982634186616359,-0.03408050527314207
1684062001316536600,0.47793701171875,0.4869904516920673,1.619092464445558,0.15358686444473096
1684062001326578600,0.48797900390625,0.4422826765403018,1.3618826864734976,0.4538516997010244
1684062001336621000,0.498021484375,0.050444603047691446,0.9973549842747059,0.8142576217310956
1684062001346663300,0.508063720703125,-0.2827529905886813,0.583956956883838,1.0836215019561442
1684062001356705600,0.518106201171875,-0.41005182265496515,0.26145386701368667,1.514236450151586
1684062001366748100,0.5281484375,-0.5056648254642283,0.018878459985626705,1.6587586402808498
1684062001376790200,0.538190673828125,-0.32998895646079046,-0.08378791819642353,1.6913623809910632
1684062001386832600,0.54823291015625,-0.13793277745528357,-0.22164297091028634,1.668625831673507
1684062001396874900,0.558275390625,-0.14665746691959827,-0.4303765295873638,1.7221584321327266
1684062001406917300,0.568317626953125,-0.26662826550391133,-0.6600501537712374,1.9000144005214405
1684062001416959600,0.578360107421875,-0.5057110786491699,-0.8089110850980852,2.130259037070375
1684062001427001800,0.588402099609375,-0.599874496446885,-0.9050118923448146,2.1515336036122297
1684062001437044100,0.598444580078125,-0.6218671797911106,-1.0395393371180992,2.376801013915235
1684062001447086600,0.60848681640625,-0.5612034796287504,-1.1774559020467685,2.4943051337790245
1684062001457128900,0.618529296875,-0.5096988677026034,-1.1331429482382085,2.447921276093417
1684062001467171000,0.6285712890625,-0.5762295722712021,-1.0328700542091824,2.3632202148688006
1684062001477213400,0.63861376953125,-0.507608890564544,-1.0410013198190762,2.100886344920114
1684062001487255700,0.64865625,-0.19081735611961614,-1.0883655548330176,1.768142700281229
1684062001497298100,0.658698486328125,0.046452522426948015,-1.0359683037006222,1.7289290428258175
1684062001507340200,0.66874072265625,0.2560577392943452,-1.0125360489688047,1.6737260816952568
1684062001517382600,0.678782958984375,0.3964490889759867,-0.9959688185546904,1.1863412856716349
1684062001527424900,0.688825439453125,0.24799919130982342,-0.8093879222934562,0.7583971023999199
1684062001537467300,0.69886767578125,0.004211425850740326,-0.6058762074286549,0.7215347288917306
1684062001547509400,0.708909912109375,-0.29961681347744884,-0.3512535094074774,0.6356067658750355
1684062001557551800,0.7189521484375,-0.34068012235007994,0.16933679565734655,0.12738418570410193
1684062001567594200,0.72899462890625,-0.5447511673049898,0.35864710808195205,-0.07439041150166048
1684062001577636600,0.739036865234375,-0.5851860046394883,0.4470009803342344,-0.42487144463208837
1684062001587678900,0.749079345703125,-0.5923104285858526,0.671581149114181,-0.8881425859054601
1684062001597721000,0.759121337890625,-0.43593120575002464,0.9147015809518095,-0.7844438553615574
1684062001607763400,0.769163818359375,-0.2269234656757781,0.8219934701846667,-0.7002258300629843
1684062001617805700,0.7792060546875,0.09607839587218031,0.48975467677030105,-0.620736122075873
1684062001627848100,0.78924853515625,0.30758714675507876,-0.05122685440616997,-0.4060802459955778
1684062001637890200,0.79929052734375,0.4613084793375034,-0.534153938210153,-0.27958679200301595
1684062001647932600,0.8093330078125,0.41952085501695796,-0.8054935932435858,-0.007373809708638162
1684062001657975000,0.819375244140625,0.28479385376431754,-0.8620886803547575,0.3100185394233109
1684062001668017300,0.829417724609375,-0.024187564862493387,-0.9191498755885835,0.34372806550402546
1684062001678059400,0.8394599609375,-0.5888767242981695,-0.9232890605942164,0.658449172977228
1684062001688101800,0.849502197265625,-1.1066403388155828,-0.8986845015724003,1.1086654663280497
1684062001698144200,0.859544677734375,-1.5574498175460703,-0.8507812021926106,1.403331756425658
1684062001708186600,0.8695869140625,-1.6992599963802029,-0.6915318967413799,1.758125305169942
1684062001718228600,0.879629150390625,-1.523477673560786,-0.7200347186012845,1.9196028709244113
1684062001728271000,0.88967138671875,-1.1877095700076055,-0.6768393516564478,1.250528335540864
1684062001738313400,0.8997138671875,-0.8177328110059607,-0.2602150440233415,0.6800117492713543
1684062001748355800,0.909756103515625,0.12946367259296823,-0.08948719503812033,0.20969867717330828
1684062001758397900,0.91979833984375,0.7038855553393791,-0.18506205071114382,-0.8222589491637031
1684062001768440200,0.929840576171875,0.8823896647324779,0.03022801869235188,-1.1498308180648529
1684062001778482600,0.939883056640625,0.7328815460653834,0.19030821324527922,-1.0596485138321772
1684062001788525000,0.94992529296875,0.08809435367555253,0.2620098591996179,-0.9622259139713132
1684062001798567300,0.9599677734375,-0.6735578179649048,0.4354600907313282,-0.4530143738000623
1684062001808609500,0.970009765625,-1.6576762198843928,0.18153095249953652,-0.37566947928230443
1684062001818651800,0.98005224609375,-2.739571094418646,0.37317156782040717,0.02401351918677009
1684062001828694200,0.990094482421875,-2.824357509798783,0.7702305911644923,0.4461212157931341
1684062001838736600,1.000136962890625,-2.307827472749446,0.9853115081941332,0.29605579373800506
1684062001848778600,1.010178955078125,-1.8625340460509892,0.8807710408947022,-0.22395801536441962
1684062001858821000,1.020221435546875,-1.419217228993994,0.7322184444002799,-0.287394523654622
1684062001868863400,1.030263916015625,-1.1748789547452527,0.6978764534256882,0.8212661743436991
1684062001878905800,1.04030615234375,-1.1443805694659928,0.27994418138453714,0.699166297952989
1684062001888948100,1.0503486328125,-0.6693586707895177,-0.13334321970960183,0.5014715194913936
1684062001898990300,1.060390625,-0.4397536813803317,-0.19156628830276035,0.8193864821562568
1684062001909032600,1.07043310546875,-0.3712332547208269,0.019731700461766106,0.92986297599286
1684062001919075000,1.080475341796875,0.06187233344763057,0.19635093211747878,0.8608045577610746
1684062001929117400,1.090517822265625,0.39102628840258313,0.19396281256088252,0.49328517916844294
1684062001939159600,1.100559814453125,0.5097183584339127,0.15480089184667864,0.2077541350344625
1684062001949201800,1.110602294921875,0.5568736792335856,-0.48146265743864475,1.0462837219484056
1684062001959244200,1.12064453125,0.8004494905389097,-0.5578001737661771,1.6838445662707813
1684062001969286600,1.13068701171875,0.8080176709782367,-0.420915842123742,1.778330802812707
1684062001979328600,1.14072900390625,0.5735450981772657,-0.5150702595182569,1.4984560013087904
1684062001989371100,1.150771484375,0.6844283939923664,-0.3298778533965006,0.923418998723076
1684062001999413400,1.160813720703125,0.01747459164189366,0.04262280461509441,0.09658527373442621
1684062002009455800,1.170856201171875,-0.6206140519461274,0.13877996796275752,-0.43359375010066514
1684062002019497900,1.180898193359375,-0.9712308645702993,0.9020403623790646,-0.3558683395173611
1684062002029540300,1.190940673828125,-1.285392522877411,-0.03238675001104364,0.05119705188461113
1684062002039582600,1.200983154296875,-1.1461302041506063,-0.09347230204821673,0.4865360260045725
1684062002049625000,1.211025390625,-1.1532866955124421,-0.44912660109296487,0.5087537766963918
1684062002059667400,1.22106787109375,-1.083358406893388,-0.9266134501053833,0.7669773103060371
1684062002069709600,1.23110986328125,-0.7811847925937697,-0.742792129482427,0.4379062651496391
1684062002079751900,1.24115234375,-0.15095412725025606,-0.8935472966693414,0.6698656082491794
1684062002089794200,1.251194580078125,0.16911470888031863,-1.5722800494027291,0.8662815094152181
1684062002099836600,1.261237060546875,0.35738939050156404,-1.4431829453497056,0.8141479492556237
1684062002109878600,1.271279052734375,0.32998198265893525,-1.4326666593293287,1.5623064040774037
1684062002119921100,1.281321533203125,0.044740796101525905,-1.4100453853395973,1.310918807850733
1684062002129963400,1.29136376953125,-0.4895168542321398,-1.2010927199663803,1.457394599825014
1684062002140005800,1.30140625,-0.6760851144699678,-0.8292678593310059,0.727834701499741
1684062002150047900,1.3114482421875,-0.663805365623273,-0.7306433914965348,0.9442195891710021
1684062002160090300,1.32149072265625,-0.5486055611829399,-0.46777549396849233,0.3702020644738064
1684062002170132600,1.331532958984375,-0.45961356161803074,-0.06881642340342321,0.3854074477737174
1684062002180175000,1.341575439453125,-0.2823389769346708,-0.05179071424615225,0.7221593856386554
1684062002190217100,1.351617431640625,0.10489809517405659,0.07918480032040003,0.27553653721261123
1684062002200259600,1.361659912109375,0.25848758217721973,-0.18744945532686766,0.3840656279041693
1684062002210301900,1.371702392578125,0.08136093598818286,-0.3436580002423666,0.6679029465277121
1684062002220344200,1.38174462890625,-0.05385541914988517,-0.059534728503300965,0.6335144042684924
1684062002230386400,1.391786865234375,0.032558441098114566,1.0441979169321445,0.33586215972676275
1684062002240428600,1.4018291015625,-0.655191779159127,0.8838362695119442,0.4261341095600844
1684062002250471100,1.41187158203125,-0.9639396667686146,0.7622894050063485,0.44488239292949594
1684062002260513500,1.421913818359375,-0.7226212023172871,0.8899645805424925,0.7062664032254823
1684062002270555600,1.4319560546875,-0.5680600405048978,1.0998406410421306,1.3033533096853076
1684062002280597900,1.441998291015625,-0.5083101986768991,0.8460286854820216,1.2200374603058393
1684062002290640300,1.452040771484375,-0.5578373671339997,0.8569926022766018,1.0365667342448026
1684062002300682600,1.4620830078125,-0.2838976383209948,0.7999840975164465,1.1437282561636488
1684062002310725000,1.47212548828125,-0.05071532738549998,1.2386267185425481,1.2733793259455608
1684062002320767200,1.48216748046875,0.29361629477130574,1.1790293456320489,1.1397151946369615
1684062002330809600,1.4922099609375,0.6056168077982105,0.9270460604790215,0.9740476608207266
1684062002340851900,1.502252197265625,1.86560785769349,-0.8225333094335363,1.7524862289018277
1684062002350894300,1.512294677734375,0.8114831447514976,-0.35902440538234465,0.46064090745475916
1684062002360936400,1.522336669921875,-0.9215277434591188,0.17157912257434552,-0.150549888553918
1684062002370978700,1.532379150390625,-1.676294088474704,1.0315768718546359,-0.09331226361357346
1684062002381021100,1.54242138671875,-1.6533807516411434,1.2280585766763281,0.25749206531165997
1684062002391063600,1.5524638671875,-1.6375577449793146,1.216647744190955,0.028748512255630083
1684062002401105600,1.562506103515625,-0.0002371074214871484,-0.016784429529027502,-0.3259944916170051
1684062002411148000,1.57254833984375,2.6533904076287627,-1.1813412904811917,0.35770320902823494
1684062002421190300,1.5825908203125,-0.2236946822142545,-0.13484191887690747,0.5518941880029282
1684062002431232600,1.592633056640625,-0.37444889554014993,-0.8308719396295072,0.6046800612862495
1684062002441274800,1.60267529296875,0.1188292503440035,-1.2097549439985533,-0.29372310642639
1684062002451317200,1.612717529296875,0.591767251358444,-1.229000449164094,-0.7383346557914295
1684062002461359600,1.622760009765625,1.0498352050136774,-0.905233859948418,-0.07852554310521809
1684062002471401900,1.63280224609375,0.6530708671251922,-1.3330550194308786,0.0792608260955149
1684062002481444000,1.642844482421875,0.7459311486327108,-1.7039754391616164,0.26282024389871167
1684062002491486400,1.65288671875,-0.3541127443024652,-1.6422388553202465,0.12219905853418811
1684062002501528800,1.66292919921875,-0.8006626367767177,-1.9065363407547327,0.6616182326877416
1684062002511571100,1.672971435546875,-1.0587551593462354,-2.300320625200271,0.2895984648326961
1684062002521613200,1.683013671875,-0.2608413696031644,-1.626331329368025,0.2061452866556601
1684062002531655600,1.693055908203125,1.180038213828364,-0.12721490856663564,1.821357250203361
1684062002541698000,1.703098388671875,1.8566892147591483,1.5758807660429495,2.291477203458706
1684062002551740300,1.713140625,1.6062880753378583,1.4610474109446927,1.5966334343133857
1684062002561782400,1.723182861328125,0.7739570140353137,0.8660502433930911,1.1452088354893601
1684062002571824800,1.73322509765625,-0.16921806329026395,0.5865664480378173,0.8649225235043304
1684062002581867200,1.743267578125,-0.9299399852639222,0.307833194799998,0.8075990678153033
1684062002591909600,1.75331005859375,-1.663331985401962,-0.10377025589332575,0.679960250825293
1684062002601951600,1.76335205078125,-2.417499303819439,-0.7566051482986506,1.1366033554409334
1684062002611994000,1.77339453125,-1.8655989170113656,-1.0054674149609242,0.7632160186740267
1684062002622036400,1.783436767578125,-0.9677462578657143,-1.019673824423394,0.26539516445885497
1684062002632078800,1.793479248046875,-0.4329999683998077,-1.014870166865256,-0.3075895309190881
1684062002642121100,1.803521484375,0.3570171594933194,-1.1795897482444002,-1.2092351914852342
1684062002652163200,1.813563720703125,0.7194273471658277,-1.6860494613029815,-1.1477861403116516
1684062002662205600,1.82360595703125,1.2403337955372675,-2.3697366715133987,-0.2108621598783338
1684062002672248000,1.8336484375,0.690897226335182,-2.660344123805648,0.38835620884577565
1684062002682290100,1.8436904296875,0.01875042924553548,-2.372253417947735,0.7566089631221854
1684062002692332500,1.85373291015625,-0.464663147767515,-1.3427958488219092,0.7019152640452254
1684062002702374800,1.863775146484375,-0.3974032401009456,-0.2085609436323766,0.6270408631867809
1684062002712417200,1.873817626953125,-0.28589415541559626,0.23117113127705466,0.5955600738369105
1684062002722459300,1.883859619140625,-0.23645806319882298,0.3578648567211842,0.5344057084376617
1684062002732501600,1.893902099609375,-0.09948968887845225,0.3781557083960327,0.21862411501180692
1684062002742544000,1.9039443359375,-0.31106603135046007,0.1723232268396497,-0.1929264069334751
1684062002752586400,1.91398681640625,0.05220329750763079,-0.059085369065788707,-0.13996887203088149
1684062002762628600,1.92402880859375,0.515550851636875,-0.4577240943560891,0.04673194897667583
1684062002772670900,1.9340712890625,0.4580796956206733,-0.7013020516595474,0.4297599792033818
1684062002782713300,1.94411376953125,0.13199925411358793,-0.40688800803173936,0.2655186653497763
1684062002792755600,1.954156005859375,-0.09887290011755456,0.15642738334694434,0.11941719048962164
1684062002802798000,1.964198486328125,-0.331438899137843,0.3216280937081355,0.04725742326353787
1684062002812840100,1.974240478515625,-0.43389737603963763,0.0190582275454985,0.36352968211969267
1684062002822882600,1.984282958984375,-0.46287715424391984,-0.2784872055577656,0.4860258102993116
1684062002832924800,1.9943251953125,-0.3504935502931284,-0.20079040524697686,0.2169299126796849
1684062002842967000,2.004367431640625,-0.33278548715600187,-0.07964611051948765,0.0898132323389188
1684062002853009300,2.01440966796875,0.013786077367172425,0.006905555708327196,-0.24281215664635808
1684062002863051600,2.0244521484375,1.0799012184357444,-0.10632657999185256,0.11188507080045046
1684062002873094100,2.034494384765625,0.4930726289821213,-0.17311954493359458,-0.4195690154287322
1684062002883136200,2.04453662109375,-0.03259527680835326,-0.4314517973392239,3.139223575547073
1684062002893178600,2.054578857421875,0.2106277942341693,1.0392026899711864,-0.14859485636846068
1684062002903220900,2.064621337890625,-0.8751151561545245,1.9149274824888252,-2.200852394174265
1684062002913263300,2.07466357421875,-0.27811694153401767,1.4427185058870111,-0.1095151902407651
1684062002923305400,2.084705810546875,0.9459729195870309,1.4323606491152623,0.5352873802276585
1684062002933347800,2.094748046875,1.0275024176631464,1.1254243850746728,0.5585241317303365
1684062002943390100,2.10479052734375,0.41516041744645443,0.872729778399336,1.6192736625357562
1684062002953432600,2.1148330078125,-0.5414319037829013,0.9495177268129217,1.7570929527931705
1684062002963474600,2.124875,-1.1724913121149028,0.4386849404365438,0.8590068818111922
1684062002973517000,2.13491748046875,-1.2229118347098422,-0.509879112047443,-0.01557302476881963
1684062002983559300,2.144959716796875,-1.7458019257929287,-1.326595306248151,-0.09979534152616157
1684062002993601600,2.155002197265625,-1.9437944889894783,-1.1113719939776598,-0.27550697326657836
1684062003003643800,2.165044189453125,-1.2412686349571609,-0.5302276611270406,-0.28885650648516303
1684062003013686200,2.175086669921875,-0.6163609027893627,-0.35406780236785884,-0.3785810469297865
1684062003023728600,2.18512890625,-0.022368192604917035,-0.4418478013016509,-0.7531690597743075
1684062003033770900,2.19517138671875,1.269485592715739,-0.4818811416983897,-1.4167847634429744
1684062003043813000,2.20521337890625,2.4860267639127063,0.36906480802408714,-1.7595357895085746
1684062003053855400,2.215255859375,2.661562681271118,0.9945015907360474,-2.016457557580408
1684062003063897800,2.225298095703125,2.6464567183647887,1.2609441280805829,-1.6204442977373141
1684062003073940100,2.235340576171875,2.534047126800077,1.0272948742069332,-0.7484712600934188
1684062003083982300,2.245382568359375,1.9612802265911689,-0.3801865578247086,-0.08862304678404326
1684062003094024600,2.255425048828125,1.234139203997146,-1.0072999000691922,0.29160833358962057
1684062003104067000,2.26546728515625,0.5460746288104582,-1.0575881004935466,1.284635066935875
1684062003114109400,2.275509765625,0.1985471249274469,-0.7368087768195242,2.090487003353529
1684062003124151500,2.2855517578125,0.309680700265761,-0.22879838946876055,1.8686861993252215
1684062003134193800,2.29559423828125,1.1521583795381132,0.7521650790633988,0.7332372665051066
1684062003144236200,2.30563671875,1.6922367809942787,0.39009261140458035,-1.1474418639983726
1684062003154278600,2.315678955078125,1.9251880645876764,-0.1465816497357422,-1.539776801965598
1684062003164320600,2.32572119140625,1.721206069056029,-1.0596356390521955,-0.8425016402998713
1684062003174363100,2.335763427734375,2.4792847633260657,-1.2053105832574207,0.6729769707794467
1684062003184405400,2.345805908203125,2.4663760662103247,-1.3326575756676355,2.373030662556338
1684062003194447800,2.35584814453125,0.9301605224949018,-1.7261428832667731,3.5359878539212013
1684062003204489900,2.365890380859375,-0.660293817492511,-1.5475809572614414,4.208028316327074
1684062003214532300,2.3759326171875,-3.0267157553709656,-1.8981938362549833,4.725710868795618
1684062003224574600,2.38597509765625,-4.770007133473098,-1.035942077592646,4.0075440407310685
1684062003234617000,2.396017333984375,-3.537582635872973,1.5255379675718868,3.2425971030731606
1684062003244659100,2.4060595703125,-2.9490196704119134,1.7786939143231364,3.4710459709780594
1684062003254701600,2.416101806640625,-0.9932210445442913,2.3524107934608596,3.7624449730231633
1684062003264743900,2.426144287109375,0.5336763857554758,1.3788223265450268,3.3365421295938082
1684062003274786200,2.4361865234375,0.2988901137976767,-1.4191451072170695,2.190195083640397
1684062003284828300,2.446228759765625,0.9508327245789827,-2.040443420527929,0.13063907611711606
1684062003294870600,2.45627099609375,1.1060422658472369,-1.7002010345030205,-1.0819025039420642
1684062003304913100,2.4663134765625,0.9004693031716244,-1.250897407511291,-1.6004209518610046
1684062003314955400,2.47635595703125,0.503244519227454,-0.42315053928470747,-1.4662904740778837
1684062003324997600,2.48639794921875,0.09438276290292731,-0.06985616669921281,-0.979320526124629
1684062003335039900,2.4964404296875,-0.3257870672637189,0.252213954937458,-0.27438926708106515
1684062003345082300,2.506482666015625,-0.8525323866523336,0.0797905922339099,0.1575851441085498
1684062003355124600,2.516525146484375,-1.1190876961243783,-0.07194185260474827,0.41601181027422995
1684062003365166800,2.526567138671875,-1.481868982287478,-0.27208232882354993,0.4606652259795905
1684062003375209100,2.536609619140625,-1.8642644880525856,-0.6521468161859808,0.9844775200249126
1684062003385251600,2.54665185546875,-1.651582241051635,-0.4813857078104976,1.3262324333738775
1684062003395293900,2.5566943359375,-1.3815801145061959,-0.4465093613366003,0.7178592683470107
1684062003405336000,2.566736328125,-0.29130434999888954,-0.44002866748458924,0.14784145361238474
1684062003415378400,2.57677880859375,0.7416836022938709,-0.9430170059310061,-1.0445237159540444
1684062003425420600,2.586821044921875,1.458679199176566,-1.1463065147033202,-2.4016270637185118
1684062003435463100,2.596863525390625,1.4113571644042728,-1.3806633948752338,-2.7076773643520022
1684062003445505200,2.606905517578125,0.6702153681291605,-1.0673875809810358,-2.2014689446842457
1684062003455547600,2.616947998046875,-0.36061882959858216,-1.114439487324441,-1.0974993704826739
1684062003465589900,2.626990234375,-0.5448319911746893,-1.0115003584714655,-0.8360447883535699
1684062003475632000,2.637032470703125,-0.38217449190072983,-0.8023877143859953,-0.5397644041660579
1684062003485674400,2.64707470703125,0.029856681848754604,-0.5380649566997542,0.02104234695987357
1684062003495716800,2.6571171875,0.1857779026443794,-0.2700586319457324,0.36690473561581016
1684062003505759200,2.66715966796875,0.3203942775756833,-0.24638652799162097,0.12259006483712652
1684062003515801300,2.67720166015625,0.053433894996498685,-0.11609268188404445,-0.34367847427733833
1684062003525843600,2.687244140625,-0.1789641380218709,-0.039540767704826646,-0.71436834332554
1684062003535886000,2.697286376953125,-0.29045963284195264,0.10150003430772549,-0.7465267181057275
1684062003545928400,2.707328857421875,-0.12582850465905124,0.16873836530023711,-0.6374125481063257
1684062003555970600,2.717370849609375,0.13978481288764869,0.12663412089807408,-0.2813215255690764
1684062003566012800,2.727413330078125,3.211226940193727,1.219740867455526,2.2450070381848746
1684062003576055200,2.73745556640625,1.4599077701350724,0.37277269347231806,1.1375651360741106
1684062003586097600,2.747498046875,0.46139228343322236,0.29872608179691484,0.37118959427284437
1684062003596139600,2.7575400390625,-0.762744903521801,0.38507127772221583,-0.4328031539525539
1684062003606182100,2.76758251953125,-1.012270212161058,-0.25697755816647166,-1.191538810750851
1684062003616224400,2.777624755859375,-0.794056892264153,-0.3160533906073164,-1.1923847198981452
1684062003626266800,2.787667236328125,-0.4950790405854576,0.22631835933876215,-0.49690246573135594
1684062003636308900,2.797709228515625,0.20232033731351762,0.1743898391212397,-0.05659198765558057
1684062003646351300,2.807751708984375,0.7848082780253017,0.17491626753840084,0.0654444694455363
1684062003656393600,2.8177939453125,0.746388912094201,0.1517548561432549,0.6740899085413841
1684062003666436000,2.82783642578125,0.42439365376880345,0.04895305630740223,1.1967892647733909
1684062003676478100,2.83787841796875,0.2431781293159469,-0.39302110652621747,2.120748043107492
1684062003686520600,2.8479208984375,0.5500679016196524,-0.4709010124617581,3.1039228439141726
1684062003696562900,2.85796337890625,0.35169804092671353,-0.31929779046445206,3.5718469619665876
1684062003706605200,2.868005615234375,-0.33135509495645404,-0.3674130439879299,3.6410291196224835
1684062003716647300,2.8780478515625,-1.196767330175443,-0.6757202148550424,3.5192682743728576
1684062003726689600,2.888090087890625,-1.2359812260117709,-0.8846669197667372,2.004330635031243
1684062003736732100,2.898132568359375,-0.8601250647328812,-0.4685082435827808,0.2257080077259295
1684062003746774400,2.9081748046875,-0.45391011247053137,-0.4106483459864008,-1.2421326638056003
1684062003756816600,2.918217041015625,0.028697967661410403,-0.7418475150739571,-1.5466279983983475
1684062003766858900,2.92825927734375,0.4523202181556937,-0.768348217028243,-1.0142531395240657
1684062003776901300,2.9383017578125,0.6075830460049564,-0.6521639824497845,-0.5039114953574219
1684062003786943400,2.94834375,1.081369161620933,-0.6501073837197179,-2.095909118580738
1684062003796985800,2.95838623046875,1.2082885505235557,-0.1416745187254797,-2.150125503574553
1684062003807028100,2.968428466796875,0.7711585761835718,-0.108368396811631,-1.7892417907990845
1684062003817070600,2.978470947265625,0.030446529310173092,-0.6232762335542035,-2.180777072914343
1684062003827112600,2.988512939453125,0.32886052146802924,-0.6115856170655182,-2.484843731106446
1684062003837155000,2.998555419921875,1.7483848332064356,-0.4808993338229169,-0.2244277001275882
1684062003847197400,3.00859765625,1.442898511789609,-0.6269984245359936,0.6501669883565978
1684062003857239700,3.01864013671875,0.9456018208571203,-0.5133171080832288,1.10742330547358
1684062003867281800,3.02868212890625,0.6922402381057007,-0.2797260283010713,0.997702598615253
1684062003877324200,3.038724609375,0.05490970622848227,-0.012774944297772253,0.8415522576181863
1684062003887366600,3.04876708984375,-2.2697787284386663,0.3021607399311601,0.4904093742718494
1684062003897408900,3.058809326171875,-3.6102559565827197,1.3567342757634224,1.048715114578396
1684062003907451100,3.0688515625,-3.396659850988933,1.589351177319259,0.3980078696546738
1684062003917493400,3.078893798828125,-2.9647724627988796,1.1769275665578436,-0.11608982071609249
1684062003927535800,3.088936279296875,-1.7216935158131894,-0.24338531493484253,-0.15172624589259245
1684062003937578200,3.098978515625,-0.56824016571425,-0.9415903091088816,-0.35364198682330805
1684062003947620300,3.109020751953125,-0.04176497459031053,-0.8453426360900925,-0.7846937179354713
1684062003957662600,3.11906298828125,0.4537322520921171,-0.5415182112845218,-1.1703352928860569
1684062003967705000,3.12910546875,0.9053016900156516,-0.017190933110146217,-1.3631501198666003
1684062003977747400,3.139147705078125,0.7168384790606886,0.07315731048145044,-1.3704290391072764
1684062003987789600,3.14918994140625,0.6143693923322612,0.2523107528539276,-1.5030632018431667
1684062003997831900,3.159232177734375,0.3818237781363265,0.3624277114111523,-1.4312853813002167
1684062004007874200,3.169274658203125,0.1415531635671796,0.5167407991154608,-0.5695123672513207
1684062004017916300,3.179316650390625,-0.15850162509939453,0.5403442383221806,0.036493301431254205
1684062004027958600,3.189359130859375,-0.6490049361604161,0.38888549794732463,0.38961553576462343
1684062004038001100,3.1994013671875,-0.7313835620707776,0.2970790862561795,0.5166442394296172
1684062004048043400,3.20944384765625,-0.9873802663492189,0.1929435731105076,0.42346572868804266
1684062004058085600,3.21948583984375,-0.6274957657526499,0.022688865657700744,0.5660686492379712
1684062004068127900,3.2295283203125,-0.5760867595977514,-0.5861539839950811,0.6049523353401144
1684062004078170300,3.23957080078125,-0.4350061417094479,-0.8195247650243787,0.4095983504541152
1684062004088212400,3.24961279296875,0.08677411072920001,-0.8129539490054716,-0.043249130209228825
1684062004098254800,3.2596552734375,0.38066768649346516,-0.5453567505504272,0.1591091155545075
1684062004108297100,3.269697509765625,0.12840366364794345,-0.3828401564755179,0.7618355749605064
1684062004118339600,3.279739990234375,-0.10818505299465937,-0.3784351349023122,1.1582045555706488
1684062004128381600,3.289781982421875,-0.12446403488190771,-0.6725234985958769,0.8480103016552478
1684062004138424000,3.299824462890625,-0.17195701600219077,-0.6091032027080472,0.526681184824239
1684062004148466400,3.30986669921875,-0.08588075632164918,-0.41180515287410835,0.2462120056485521
1684062004158508600,3.3199091796875,0.07003116617289892,-0.13622760768822684,0.2177610397648825
1684062004168550800,3.329951171875,0.11381316200389797,0.040705680835767796,0.35275030124861
1684062004178593200,3.33999365234375,0.19165897358561995,-0.02741813654678772,0.41573238382101724
1684062004188635600,3.350035888671875,-0.0168430804924303,0.2214002608335085,0.6338832377146413
1684062004198677900,3.360078369140625,-0.28905034068759233,0.7188749313516271,0.6356482504153563
1684062004208720000,3.370120361328125,-0.5539000033965683,0.5587291716710358,0.7466194629061282
1684062004218762400,3.380162841796875,-0.8911523818190629,0.08635044096475676,0.358557224092462
1684062004228804800,3.390205078125,-0.9003820417697541,-0.11668777463482022,0.08005046848926747
1684062004238847200,3.40024755859375,-0.7340779304505948,-0.11001777650526608,0.0574917794199669
1684062004248889300,3.41028955078125,-0.32726740837561685,-0.14773082729866105,0.07938098902939766
1684062004258931600,3.42033203125,0.21901631357887952,-0.36162090301834254,0.06878232959015794
1684062004268974000,3.43037451171875,0.5638453959005308,-0.2152433395368441,0.5092353820928346
1684062004279016400,3.440416748046875,0.5448296071186899,-0.0159511567371857,0.9713692665104924
1684062004289058600,3.450458984375,0.38703274733287535,0.3903121948559836,1.4465367794147859
1684062004299100800,3.460501220703125,0.3278129101208131,0.6540889739602457,1.671540737241875
1684062004309143200,3.470543701171875,0.2913703917692413,0.46209573746679855,1.8127541541148164
1684062004319185300,3.480585693359375,0.4747493267044843,0.28075075156929263,1.6704299449527014
1684062004329227600,3.490628173828125,0.7696421146562468,0.21961498265251567,1.3193840978920812
1684062004339270100,3.50067041015625,1.969744801471116,0.796660423186128,1.3618290424586819
1684062004349312400,3.510712890625,2.7232787609524527,0.6732125282721874,1.5648763179321072
1684062004359354600,3.5207548828125,2.6243019102927208,0.41364765159652356,1.3296582698678796
1684062004369396900,3.53079736328125,1.465409159678068,0.30902194982986947,0.846615791319732
1684062004379439300,3.540839599609375,-0.495088100585402,-0.15889072417544295,0.19657230379717217
1684062004389481600,3.550882080078125,-1.7967317103075737,-0.540987014662704,-0.41780042652936483
1684062004399523800,3.560924072265625,-2.12588691694545,-0.29129028312563665,-0.3201050759664596
1684062004409566100,3.570966552734375,-1.6910202503553513,0.1371126174977257,0.37793254853075114
1684062004419608600,3.5810087890625,-1.0754706859448528,0.24737071986719106,1.1082565784724336
1684062004429650900,3.59105126953125,-0.33332180978067455,0.13859558099014394,1.212661504907464
1684062004439693000,3.60109326171875,0.26182985298906203,0.17787742613538,1.1138486863004833
1684062004449735300,3.6111357421875,0.23414397232767814,0.12072753906587895,0.8637046813749599
1684062004459777600,3.62117822265625,-0.4288039208586817,0.14884185787282822,0.4026985168080404
1684062004469820100,3.631220458984375,-0.8145189285334394,0.4766273498609823,0.41679549232543667
1684062004479862200,3.6412626953125,-1.181258678570817,0.5604243279264625,0.43821096420207556
1684062004489904600,3.651304931640625,-1.5633530615776097,0.5880794526074932,0.6519856452952134
1684062004499946900,3.661347412109375,-1.6114516256972529,0.5285387040333852,0.885551929500002
1684062004509989000,3.671389404296875,-0.8374614714451248,1.926041126243347,1.885714054141502
1684062004520031400,3.681431884765625,-0.3207046985740908,2.4079647062344,2.0253598691477515
1684062004530073800,3.69147412109375,-0.12030792234246099,2.2999153137428405,2.3989148140083305
1684062004540116100,3.7015166015625,-0.6399734019471996,2.094101905744777,2.883105039729651
1684062004550158300,3.71155859375,-1.087621927360864,1.0199642182033861,2.627732753780585
1684062004560200600,3.72160107421875,-1.004339456535757,0.19408988954684628,2.155660629139527
1684062004570243000,3.731643310546875,-0.1646194457752845,0.24093055715698652,1.2507003545462567
1684062004580285100,3.741685546875,-0.029310464872043474,-1.7678117752478388,-1.25933837899834
1684062004590327500,3.751727783203125,-0.6165335178692766,-2.369914054822445,-2.4955110550514843
1684062004600369800,3.761770263671875,-0.2965323925504735,-1.8990783692468505,-4.184528350801209
1684062004610412200,3.7718125,-0.24593591705186915,-1.3087253570565054,-4.103441238498038
1684062004620454300,3.781854736328125,-0.07256984709525827,-0.8923025130527817,-3.195582389834055
1684062004630496600,3.79189697265625,-0.06779241575102346,-0.836933136031417,-2.0336501597684467
1684062004640539100,3.801939453125,-0.13812780372608646,-0.469227790812328,-1.0219504833304796
1684062004650581400,3.81198193359375,-0.39640760424384464,-0.17375850681359842,-0.24107241639942742
1684062004660623600,3.82202392578125,-0.7795112132466917,0.11411285394572214,0.2630956171893935
1684062004670665900,3.83206640625,-1.2166726587920882,0.34589290623306135,0.42595136177145704
1684062004680708300,3.842108642578125,-1.3602895737282936,0.7979116440547233,0.8112984896209972
1684062004690750600,3.852151123046875,-1.2771883009923077,0.09470748909268609,0.8450057505549307
1684062004700792800,3.862193115234375,-1.1438705922199162,0.2359514236136989,0.8816480636395589
1684062004710835100,3.872235595703125,-1.3171422482439967,0.3636970521732144,1.180814146854584
1684062004720877600,3.88227783203125,-1.1081917287299154,0.4487428665489481,0.8124445677102831
1684062004730919600,3.892320068359375,-0.9163703917951735,0.08353233328506098,0.7662477492361542
1684062004740962000,3.9023623046875,-0.8962512015234543,0.16818809506605503,1.2945261001000934
1684062004751004300,3.91240478515625,-0.6255760192981726,0.5408782959268584,1.0146905183056132
1684062004761046600,3.922447021484375,-0.25578117369014386,0.5089101791088102,0.6675465107824828
1684062004771088800,3.9324892578125,0.3942155837838514,0.4941778182400722,0.5711594819217355
1684062004781131200,3.942531494140625,0.5283763409986686,-0.06268787386920749,0.5782715080526373
1684062004791173600,3.952573974609375,0.5184690952358306,-0.05387973778245985,0.4501031636690171
1684062004801215900,3.9626162109375,0.7539080381677611,-0.57627296446952,-0.17748427403034947
1684062004811258000,3.972658447265625,0.6091191768924213,-0.3137817382988645,-0.3312053679550336
1684062004821300400,3.98270068359375,0.10478782667622386,-0.016232490558027564,-0.27890968339370537
1684062004831342800,3.9927431640625,-0.321407794970309,0.33514404300303346,-0.07535231104389184
1684062004841385100,4.00278564453125,-0.41535258302704614,0.659503936783335,-0.04665744305909277
1684062004851427200,4.01282763671875,-0.2725727558256097,0.7598094940654498,0.16563081735609528
1684062004861469600,4.0228701171875,0.6229571105494742,2.2410039900715315,-1.2212274074373823
1684062004871512000,4.032912353515625,0.8561961650967702,1.6620683671068561,-0.28987538797672474
1684062004881554100,4.04295458984375,1.1327538489248274,1.105348587201382,1.5525556802754459
1684062004891596500,4.052996826171875,1.688673377115256,0.9620189666200015,2.0060532092568213
1684062004901638800,4.063039306640625,1.6924879550147585,0.7203321455865128,2.610958576235448
1684062004911681200,4.07308154296875,1.9245198964945287,0.9006109237798684,3.2364809511943275
1684062004921723300,4.083123779296875,1.9249026776117948,0.372739791946922,3.651439905211409
1684062004931765600,4.093166015625,1.7552093267251545,0.38135623919279604,3.446021556916122
1684062004941808000,4.10320849609375,1.6330214738879367,1.214675903487279,2.1564311979381063
1684062004951850200,4.11325048828125,1.2303922175583344,0.5829372406426433,1.4775605201551858
1684062004961892600,4.12329296875,1.0559209584891858,-0.23158168805757795,1.0943952799694667
1684062004971934900,4.133335205078125,0.6879619360342845,-1.164760589635784,1.0841100215438222
1684062004981977300,4.143377685546875,0.7293618916470115,-4.333865165701797,1.1188914776535903
1684062004992019400,4.153419677734375,0.2826635837808346,-8.42375850675821,1.986266851391058
1684062005002061700,4.163462158203125,-0.21110141272830046,-7.336372375472007,1.8125033377999356
1684062005012104100,4.17350439453125,-0.029709458452111717,-1.6193771363381306,-0.0038757323350669583
1684062005022146600,4.183546875,0.4101793766694825,-0.80233478549753,-1.2924582957806454
1684062005032188600,4.193589111328125,0.7242438793824223,-0.8776140211592939,-1.5036573409310836
1684062005042231000,4.20363134765625,0.9442967175701145,-1.0476303100821764,-0.9806391596500381
1684062005052273300,4.213673828125,1.0687624216508307,-0.830792427220167,-0.5257534980686541
1684062005062315600,4.223716064453125,1.2692444324305092,-0.4200963974307109,0.19874680039503811
1684062005072357800,4.23375830078125,1.1211810112662826,-0.19918251034633155,0.8251297472761839
1684062005082400200,4.243800537109375,0.6766252518132678,0.05507850660746647,1.187558889563023
1684062005092442600,4.253843017578125,0.19889378546081704,0.0702676771854112,1.1783977747910528
1684062005102484600,4.263885009765625,0.05889964093288278,0.08976459504378072,1.0065873860609322
1684062005112527000,4.273927490234375,0.28424429883492763,0.11569595331211346,1.0064954758261924
1684062005122569400,4.2839697265625,0.6422015428930135,0.29456520085361826,0.6773066521475521
1684062005132611800,4.29401220703125,0.684373378764469,-0.02519226062951087,0.5666851997460512
1684062005142653900,4.30405419921875,0.7503986955880813,-0.05420398707749398,0.22666762764434856
1684062005152696200,4.3140966796875,0.876247882874303,-0.022642135660686187,-0.050753414513865044
1684062005162738600,4.324138916015625,0.8914976715603129,-0.1269569396435253,-0.30259716509902085
1684062005172781000,4.334181396484375,0.80506020792931,-0.271568298244157,-0.6118828058581601
1684062005182823100,4.344223388671875,0.7559472916879795,-0.4134902953179728,-1.125177502599815
1684062005192865500,4.354265869140625,0.6122482419961968,-0.4691619873017381,-1.5411868095229295
1684062005202907800,4.36430810546875,0.44210386289320325,-0.45103359204639587,-1.9025086164896554
1684062005212950200,4.3743505859375,0.30584609502044796,-0.388070106483378,-1.7791116237030724
1684062005222992300,4.384392822265625,0.09801208979816764,-0.15853309626213324,-1.5556784869378797
1684062005233034600,4.39443505859375,-0.039704799652293316,0.0984649657417167,-1.0262602566554615
1684062005243077000,4.4044775390625,-0.0941913128473044,-0.37957954406040934,-0.5216836332134862
1684062005253119200,4.41451953125,-0.03138887890077318,-0.37487125399947596,-0.5584376455020928
1684062005263161600,4.42456201171875,0.080468773717282,-0.3870859145672739,-0.6691045164628153
1684062005273203900,4.434604248046875,0.19227635861553352,-0.30597877499678316,-0.6708226203496266
1684062005283246000,4.444646484375,0.24248349656188353,-0.5355157852030737,-0.3299866318888988
1684062005293288400,4.454688720703125,0.12143325813993529,-0.6307153701997463,-0.09309250119446812
1684062005303330700,4.464731201171875,-0.09143114072963937,-0.4790401459818887,0.04383617642478643
1684062005313373100,4.4747734375,-0.37912666791161526,-0.08286571506296704,0.545962452913654
1684062005323415200,4.484815673828125,-0.565688967687138,1.061937332128652,0.3187931774181478
1684062005333457600,4.49485791015625,-0.5325887204112579,1.1113071442451248,-0.14587211594827085
1684062005343500000,4.504900390625,-0.2507190705316688,1.1176595688199713,-0.2829018234880247
1684062005353542300,4.514942626953125,0.19627118102603244,1.0375070572934297,-0.13729250435716803
1684062005363584400,4.52498486328125,0.6059811114985512,1.0543565750205512,-0.04633229960163827
1684062005373626800,4.535027099609375,0.8849364519716376,1.3376350402568726,-0.30299210544488436
1684062005383669200,4.545069580078125,1.0122070311480198,1.4835300445799804,-0.5958308578427184
1684062005393711300,4.555111572265625,1.0085213183855801,1.328931808372766,-0.6808099151731208
1684062005403753600,4.565154052734375,1.0670826436665328,1.0825176237551917,-0.7017368078401558
1684062005413796000,4.575196533203125,1.1462163925584024,0.8318653107232369,-0.7951901555096592
1684062005423838400,4.58523876953125,1.3089896441937332,0.7945384979604185,-1.3526735306485094
1684062005433880600,4.595281005859375,1.375366210900747,0.39258766187296174,-1.8749418260322195
1684062005443922900,4.6053232421875,1.3281607627668917,-0.9267797471790881,-1.3810292483505113
1684062005453965200,4.61536572265625,0.8706117272515127,-1.7235355377683104,-1.3946850298889264
1684062005464007300,4.62540771484375,-1.2620934248131026,-1.820199012757471,-1.653458237533535
1684062005474049600,4.6354501953125,-2.7550725936476796,-1.5103044509678467,-1.0317506790263786
1684062005484092100,4.645492431640625,-2.5025923251160975,-0.8643684386417103,0.2969640493392984
1684062005494134400,4.655534912109375,-1.3310265540773751,-0.23063468934377696,1.9333322046999115
1684062005504176600,4.665576904296875,-0.32466709617303796,-0.2154722212308395,2.7697277069778967
1684062005514218900,4.675619384765625,0.6524299384687781,-0.14878749835879476,2.3932471274424043
1684062005524261300,4.68566162109375,0.8743690849899587,0.3204545976486921,0.8046438692957671
1684062005534303600,4.6957041015625,0.49616929894207634,0.06308364879081164,0.2776522635663819
1684062005544345800,4.70574609375,-0.01594334859720224,-0.02910900108510392,0.06987452507756485
1684062005554388100,4.71578857421875,-0.07096582645458381,-0.10528755182571062,0.1021814345899875
1684062005564430600,4.725830810546875,-0.01805645231330585,0.15737342835830542,-0.2290877105167047
1684062005574472600,4.735873046875,0.008338302308471468,0.23334407824489864,-0.3919155598466152
1684062005584515000,4.745915283203125,0.10954198241980308,0.1324129105491405,-0.1963646412226829
1684062005594557400,4.755957763671875,0.2995705007778019,0.054879188630555825,0.27520072453071265
1684062005604599600,4.766000244140625,0.20719335970630554,0.2090272904182962,0.1687918901783336
1684062005614641800,4.776042236328125,0.20822843905444252,-0.06478023535328922,0.628367543253991
1684062005624684200,4.786084716796875,0.09841559822278176,0.1925773621030034,0.24390447142995034
1684062005634726600,4.796126953125,-0.09177809949450282,0.088921546926419,0.06991386414236749
1684062005644768900,4.80616943359375,-0.09438532588680255,0.011582374534103608,-0.12363421923531286
1684062005654811100,4.81621142578125,-0.027755677750357994,-0.04152107233049768,-0.21965229496391517
1684062005664853400,4.82625390625,-0.009008958875663909,-0.09445667260508576,-0.2215712070509016
1684062005674895800,4.836296142578125,-0.02473829702425682,-0.2047042847001349,-0.05677950395133629
1684062005684937900,4.84633837890625,-0.04234653711758319,-0.1570577621114233,-0.03551328184911393
1684062005694980300,4.856380615234375,-0.06213036184700724,-0.2124261856740447,0.07536578175196969
1684062005705022600,4.866423095703125,-0.1386649608756114,-0.10569667805160461,0.1549489498768094
1684062005715064800,4.876465087890625,-0.17564024020482266,-0.09041976934195571,0.13654088972881911
1684062005725107100,4.886507568359375,-0.1864279360532575,-0.06825733183164273,0.08135771749626156
1684062005735149600,4.8965498046875,-0.31417512890577987,-0.03206634528371316,0.14709448804856395
1684062005745191900,4.90659228515625,-0.4198502898615643,0.04426860818495082,0.21579778199288696
1684062005755234000,4.91663427734375,-0.5146374105608503,0.00782585142079683,0.11575722692762043
1684062005765276300,4.9266767578125,-0.5162412523506107,-0.009696006810842454,-0.19740998746023683
1684062005775318600,4.936718994140625,-0.33633005619826684,-0.08463001254435198,-0.5957781077236768
1684062005785361100,4.946761474609375,-0.06776577229014417,-0.14031791685381098,-0.9712862372874228
1684062005795403200,4.956803466796875,0.20045322165740614,-0.19092941279395387,-1.2444057464029075
1684062005805445600,4.966845947265625,0.4349265694153795,-0.23873805992849734,-1.42461299882914
1684062005815487900,4.976888427734375,0.5369166135092694,-0.2767219542782376,-1.4677107334261916
1684062005825530000,4.986930419921875,0.4374649526066024,-0.22396087652625293,-1.4446671009938599
1684062005835572400,4.996972900390625,0.11282296474869032,-0.20984745026292567,-1.3397344351808023
1684062005845614800,5.00701513671875,-0.15185639260876185,-0.16273593900368313,-1.227189540791688
1684062005855656900,5.017057373046875,-0.19129246469558736,-0.1781806946295477,-1.2212207317276318
1684062005865699200,5.027099609375,-0.009846657544731376,-0.1244449613878535,-1.3826212882621243
1684062005875741600,5.03714208984375,0.19897706815184196,-0.10430526743126668,-1.5365008114912229
1684062005885784000,5.047184326171875,0.2981758416669396,-0.07233428957254828,-1.6402108669717863
1684062005895826100,5.0572265625,0.404139459086083,-0.12635326378706602,-1.695826888095568
1684062005905868500,5.067268798828125,0.5745261906689569,-0.32324886310962303,-1.6072745323615993
1684062005915910800,5.077311279296875,0.5401791334868649,-0.6099557877812579,-1.3624231815308667
1684062005925952900,5.087353271484375,0.3330580294118777,-0.8094997404907069,-1.1691944598489796
1684062005935995300,5.097395751953125,0.13671602306577288,-1.0988636016595454,-1.034534215945584
1684062005946037600,5.10743798828125,0.029563784649252783,-1.3751325607448386,-0.9842283725868715
1684062005956079800,5.117480224609375,0.02717776598811866,-1.3922328949023142,-1.105574607998642
1684062005966122200,5.1275224609375,0.0435001550931411,-1.286831855907566,-1.3809331654249883
1684062005976164600,5.13756494140625,0.003964140970430587,-1.3986797332291943,-1.4459176063338157
1684062005986206900,5.147607177734375,-0.000650718801246154,-1.5437545777092827,-1.5010043382675706
1684062005996249000,5.1576494140625,0.023861035785679042,-1.456870078960442,-1.5197536944307175
1684062006006291400,5.16769189453125,0.05488508943155002,-1.370054244857426,-1.4847350121343799
1684062006016333700,5.177734130859375,0.09670022146941744,-1.1325855255763333,-1.4596009253139361
1684062006026376100,5.187776611328125,-0.0008545220027009724,-0.7809295654044072,-1.1592378617578987
1684062006036418200,5.197818603515625,-0.2989243865085518,-0.3659343719279711,-0.7414970398580588
1684062006046460600,5.207861083984375,-0.7456544638373247,0.11683368695248453,-0.3719651699149891
1684062006056503000,5.2179033203125,-1.083522200511691,0.5261898040769372,0.12131643292978671
1684062006066545100,5.227945556640625,-1.2648421526962415,0.5922060013486994,0.5199389457335376
1684062006076587400,5.23798779296875,-1.1919536590021955,0.6143865584787529,0.7033627033577313
1684062006086629800,5.2480302734375,-0.9910652043016789,0.48814678195512806,0.8246598242877687
1684062006096672200,5.258072509765625,-0.7125213146527526,0.3191089629421621,0.8514790535032395
1684062006106714300,5.26811474609375,-0.48652136310151667,0.2674131392839785,0.8798995018429571
1684062006116756600,5.278156982421875,-0.6475102900894097,0.2036304473570984,0.9840047359007733
1684062006126799000,5.288199462890625,-0.9276981948923179,0.10625743871674449,0.8761804105289921
1684062006136841100,5.298241455078125,-0.9862783550853899,-0.03854751575355842,0.6560406683953072
1684062006146883600,5.308283935546875,-0.8331422805163603,-0.13519382473962085,0.5227260589569611
1684062006156925900,5.318326171875,-0.5829755664750446,-0.09839439379755538,0.5305757522270715
1684062006166968000,5.328368408203125,-0.45617669832382735,-0.027048110936118315,0.7403573989493534
1684062006177010400,5.33841064453125,-0.5423423051720598,0.04722404476514946,0.9616166353570951
1684062006187052600,5.348453125,-0.4179984330778087,0.19381427769404994,1.0455336569618296
1684062006197095100,5.35849560546875,-0.19367992889008193,0.4894094468452146,1.2828689814876468
1684062006207137200,5.36853759765625,-0.5237323044967898,0.3354482650420452,1.8244800568888142
1684062006217179600,5.378580078125,-1.0506842136490455,0.08712387091982463,2.2189230919756433
1684062006227221900,5.388622314453125,-0.9486896992107962,-0.07608604426237307,2.2869176864709604
1684062006237264000,5.39866455078125,-0.641744136781127,0.0266437531791051,2.09094429020129
1684062006247306400,5.408706787109375,-0.3658323288195588,0.27204322821057275,1.967038393038812
1684062006257348800,5.418749267578125,-0.09180974946071067,0.38574218738940974,1.8649563788728352
1684062006267390900,5.428791259765625,0.13147974026387732,0.3106431961080536,1.782007217301563
1684062006277433300,5.438833740234375,0.2831068037486761,0.24342536928493172,1.4009144305288315
1684062006287475600,5.4488759765625,0.42658090601098014,0.1824989318783907,1.0058534145828057
1684062006297518000,5.45891845703125,0.47938823705872446,-0.051196098145371294,0.5588297843487053
1684062006307560100,5.46896044921875,0.6097743512489548,-0.26142120363484306,0.11950218681349435
1684062006317602600,5.4790029296875,0.9008588789720813,-0.35477447512033844,-0.2307276725785773
1684062006327644800,5.489045166015625,1.1712620259022573,-0.3145399094005415,-0.4811404942794799
1684062006337687000,5.49908740234375,1.3487734794838242,-0.2297496794717005,-0.4693552254378896
1684062006347729300,5.509129638671875,1.333467245004091,-0.23256015773568256,-0.3968485594454664
1684062006357771600,5.519172119140625,1.2650573252914439,-0.060625076354702864,-0.23316752915830882
1684062006367814100,5.52921435546875,1.2979612348841696,0.020054817203440267,0.13836097699912195
1684062006377856200,5.539256591796875,1.333230376250316,0.2698602675072718,0.6433664559740728
1684062006387898600,5.549298828125,1.1615412235417877,0.5017814635554204,0.9230360984733265
1684062006397940900,5.55934130859375,0.6858680248789034,0.6649436951982499,1.2392188310962577
1684062006407983000,5.569383544921875,0.540436744725689,0.8146629334217327,1.465773582564893
1684062006418025400,5.57942578125,0.5642709732751695,0.9258480072029447,1.9149819612781929
1684062006428067800,5.58946826171875,0.6200189590732375,1.2120914457810128,2.2050664426368978
1684062006438110100,5.599510498046875,0.651353835894896,1.3655729294720502,2.3585715293422744
1684062006448152200,5.609552734375,0.4772701262458093,1.3197827340680834,2.3237085343774795
1684062006458194600,5.619594970703125,0.32799053193384614,1.1824340818925267,2.30040550234341
1684062006468237000,5.629637451171875,0.3139519689886825,1.1088018416894403,2.0736460686857767
1684062006478279100,5.639679443359375,0.3467304706665532,1.0810708999824667,1.9208611249830727
1684062006488321500,5.649721923828125,0.29159498228780384,1.1142959594688309,1.6403598785860682
1684062006498363800,5.65976416015625,0.44343137731744137,1.0430984497325084,1.141236782188434
1684062006508405900,5.669806396484375,0.4105215073906959,0.7511177063083931,0.5711332559340909
1684062006518448300,5.6798486328125,0.3225624560450151,0.5347023009819887,0.27830934510435773
1684062006528490600,5.68989111328125,0.20685482026077368,0.21442699431198248,0.14647185806712018
1684062006538533000,5.699933349609375,0.13442802438477824,0.09443187707144729,-0.07091271877389209
1684062006548575200,5.7099755859375,-0.10652708994979854,0.4561233521331147,0.4643640516938824
1684062006558617600,5.720017822265625,-0.25878596309663027,0.8717432023166019,0.6973439455323408
1684062006568659900,5.730060302734375,-0.41886091228353295,1.062862873112299,0.8645159005441755
1684062006578702000,5.740102294921875,-0.3183209896687407,1.0909166335440201,0.8922201394921996
1684062006588744400,5.750144775390625,-0.13313221938534409,1.033751010965946,0.5947766305721438
1684062006598786700,5.760187255859375,-0.06701755541796589,1.0249857903130337,0.45990288262988205
1684062006608829100,5.7702294921875,-0.19526815407840548,0.9443178177418771,0.27261412136211755
1684062006618871200,5.780271728515625,-0.29627633090858635,0.712683677583354,0.038485646261237634
1684062006628913600,5.79031396484375,-0.36994528760618217,0.521488189750859,-0.43318760408953116
1684062006638956000,5.8003564453125,-0.49865794187649287,0.2361764907471268,-0.6462229490006647
1684062006648998100,5.8103984375,-0.5353798866585003,0.05206108098650275,-0.9393441081465486
1684062006659040400,5.82044091796875,-0.4208376408661944,-0.05455303197028001,-1.265008926426696
1684062006669082800,5.830483154296875,-0.17796444888630997,0.022382736237934547,-1.249138951235753
1684062006679124900,5.840525390625,-0.4599969388111421,0.09390068055061326,-1.206580400337479
1684062006689167300,5.850567626953125,-0.693074464802403,0.21251392358023502,-1.1434813737625087
1684062006699209600,5.860610107421875,-0.652945041790876,0.2900114058681787,-0.9654712675627766
1684062006709252000,5.87065234375,-0.759433508045469,0.12763309484320676,-0.7023593187953219
1684062006719294100,5.880694580078125,-0.9824528693360288,0.1257429122738824,-0.6008670331215491
1684062006729336600,5.89073681640625,-1.1600470543047787,0.12960147858758503,-0.2689009905639824
1684062006739378900,5.900779296875,-1.2972199916663458,0.13594341272788324,0.04187059401466378
1684062006749421000,5.9108212890625,-1.3511044980051974,0.13276481639433507,0.3954269886537929
1684062006759463300,5.92086376953125,-1.4821348190488148,0.026885032526503795,0.7788261174079507
1684062006769505600,5.930906005859375,-1.7274773120895532,-0.15093612656134467,1.1525999307073758
1684062006779547800,5.9409482421875,-2.0933356283891724,-0.2799224852794623,1.6502398252386
1684062006789590200,5.950990478515625,-2.3107235431997304,-0.31786251063068827,2.301804542530889
1684062006799632600,5.961032958984375,-2.004532575592473,-0.05965137479395818,2.567013502176754
1684062006809674900,5.971075439453125,-1.6146442889664607,0.23219108586485507,2.6858329771616862
1684062006819717000,5.981117431640625,-1.2691445351188897,0.36321926122675036,2.59187984448801
1684062006829759400,5.991159912109375,-0.7070200443753466,0.3501119615087768,2.1724526880905937
1684062006839801800,6.0012021484375,-0.1645767689134422,0.3438129425039942,1.7579317092705393
1684062006849843900,6.011244384765625,0.20277976995154126,0.24738407130555606,1.2914605142316444
1684062006859886300,6.02128662109375,0.3212676048901728,-0.2390193938728212,1.10228586184845
1684062006869928600,6.0313291015625,0.13036942492082765,-1.1684074402793074,1.1934607027277666
1684062006879970700,6.04137109375,0.030285120085740098,-2.120358467045722,1.1623377798927526
1684062006890013100,6.05141357421875,0.24356102934886067,-2.8667917250395223,1.2506000995253987
1684062006900055600,6.061455810546875,0.6435148715571498,-3.0725431441990123,0.9794025422352843
1684062006910097800,6.071498291015625,1.0616409778876383,-2.637786865144714,0.31936907771348394
1684062006920140000,6.081540283203125,1.8735663891072374,-1.5552530289535107,-0.2502416371860225
1684062006930182300,6.091582763671875,2.656424283964966,-0.3497257232311838,-0.3848823309254726
1684062006940224600,6.101625,3.0275771618181064,0.47104263295467347,-0.2956116198241582
1684062006950266800,6.111667236328125,2.9390826225117177,0.995824813766341,-0.11090064038521212
1684062006960309200,6.12170947265625,2.3827462197380425,1.3314952850007449,0.22549366960685785
1684062006970351600,6.131751953125,1.60562109955493,1.6684317590322308,0.8484997751002583
1684062006980393600,6.1417939453125,0.9769791365620732,1.8700051307310384,1.5255342722117118
1684062006990436000,6.15183642578125,0.8299741744327611,1.799194336097387,1.9944579602191264
1684062007000478400,6.161878662109375,1.2612824439552308,1.4816017149798963,1.8455235958538745
1684062007010520800,6.171921142578125,1.876019477840552,1.0221643446523239,1.4909845590733446
1684062007020562900,6.18196337890625,2.13043212891628,0.7011928559274124,1.2108089924103396
1684062007030605200,6.192005615234375,2.0090434550516223,0.2673635481772207,1.2630227802764586
1684062007040647300,6.2020478515625,1.533382296503611,0.05324554452626665,1.2698613405996666
1684062007050689600,6.212090087890625,1.1931378842720985,-0.14404010770603975,1.4124802351804682
1684062007060732100,6.222132568359375,1.0323970319021,-0.37701988219285626,0.9802043438170711
1684062007070774400,6.2321748046875,1.043751001284279,-0.69806957241964,0.8205457925307591
1684062007080816600,6.242217041015625,0.9330511689514944,-0.6841945647316897,0.6735471485866391
1684062007090858900,6.25225927734375,0.8091418742670448,-0.7679376601568765,0.593254685406004
1684062007100901300,6.2623017578125,0.8059685230213413,-0.5348243714307747,0.3196105957807199
1684062007110943400,6.27234375,0.925176501156786,-0.2647018433157421,0.1358258723565885
1684062007120985800,6.28238623046875,1.117619752749226,0.03633499157093523,-0.05606400971619512
1684062007131028100,6.292428466796875,1.3386940956419344,-0.0922880173531688,-0.13317084299162293
1684062007141070300,6.302470703125,1.2771480083765807,-0.06481838227282645,-0.2391675711313247
1684062007151112600,6.312512939453125,1.0115051268448791,-0.16692161570053266,-0.10188031213086433
1684062007161155000,6.322555419921875,0.7139596342809048,-0.3173789977790196,-0.1350256204405748
1684062007171197400,6.33259765625,0.4410696029806651,-0.247940063477589,-0.06773579129575133
1684062007181239500,6.342639892578125,0.09201407437668384,-0.0711746217041939,0.29651808738702085
1684062007191281800,6.35268212890625,-0.13051724437852788,-0.03352260588253741,0.53489482410509
1684062007201324200,6.362724609375,-0.05259931086559267,0.08742332468054229,0.4539858101513331
1684062007211366300,6.3727666015625,0.16652345641438976,0.14311504369118272,0.42433321472924795
1684062007221408600,6.38280908203125,0.42592132091765356,0.1812400816588093,0.2264018057764569
1684062007231451100,6.3928515625,0.6810165048012804,0.12274742124733197,0.026417374746572627
1684062007241493400,6.402893798828125,0.9617023466850362,0.07783031466939414,-0.1739526986009944
1684062007251535600,6.41293603515625,1.2338140010632503,0.11845874788601665,-0.35135912902578964
1684062007261577900,6.422978271484375,1.3354380129295536,0.2352218628134188,-0.4430093170837823
1684062007271620300,6.433020751953125,1.361832141788163,0.4568548201386761,-0.24227142347041522
1684062007281662400,6.443062744140625,1.2609717844694976,0.6088638304892808,0.15343463419071757
1684062007291704800,6.453105224609375,1.061832427978966,0.41909408570507467,0.49966847906437134
1684062007301747100,6.4631474609375,0.899798869965559,0.29685115808655094,0.5769218207210272
1684062007311789200,6.473189697265625,0.6314896345777474,0.10571575153359469,0.5023350715646359
1684062007321831600,6.48323193359375,0.3690278530208667,0.03896045694626739,0.30672776694063614
1684062007331874000,6.4932744140625,0.27988719943269397,-0.07831001284013638,0.21750330920648478
1684062007341916300,6.503316650390625,0.35352188363796566,-0.13856601723746637,0.12997782235060343
1684062007351958400,6.51335888671875,0.46832948931903573,-0.2469987869243514,0.237915396620843
1684062007362000800,6.523401123046875,0.4876176715140412,-0.16217708582417764,0.2568646668525447
1684062007372042900,6.533443359375,0.45365595814998677,-0.13048362716346198,0.2369765045207348
1684062007382085300,6.543485595703125,0.4135208130030581,-0.0872545243270901,0.2378469704899567
1684062007392127600,6.553528076171875,0.3500093519792394,-0.08981800078633316,0.26398885242624104
1684062007402170000,6.5635703125,0.2593660055274587,-0.07120418550210438,0.32044601440780823
1684062007412212100,6.573612548828125,0.13350218524178126,-0.05774116521437129,0.31209552291106635
1684062007422254600,6.583655029296875,0.0831283627490064,-0.06853866582333319,0.22239780411620222
1684062007432296900,6.593697265625,0.05520394433488751,-0.02468585964878421,0.08253252498839675
1684062007442339000,6.603739501953125,0.0968948304495612,-0.08383083328482738,-0.004307031626129895
1684062007452381400,6.61378173828125,0.07298371200002607,-0.0545139311121595,-0.14768683908694957
1684062007462423700,6.62382421875,-0.0032455920071868863,-0.06362152102925372,-0.253085017296681
1684062007472465800,6.6338662109375,-0.14558729517229996,-0.022751808231313866,-0.3041367530473977
1684062007482508200,6.64390869140625,-0.3068859875244191,0.027339935422061503,-0.35323333736368867
1684062007492550600,6.653950927734375,-0.47347381705987346,-0.013737678534887396,-0.4171373246946503
1684062007502592900,6.663993408203125,-0.560696721268187,-0.07897949226626132,-0.48429846768202683
1684062007512635100,6.674035400390625,-0.5352264643320817,-0.11340236657567632,-0.5905779004677956
1684062007522677400,6.684077880859375,-0.5110497473196708,-0.11456966393191167,-0.682954311415672
1684062007532719800,6.6941201171875,-0.4448832868910123,-0.08486270897168424,-0.7734118700385856
1684062007542761900,6.704162353515625,-0.29562729603883986,-0.08283805849566352,-0.7250763176275351
1684062007552804300,6.71420458984375,-0.21181809916788713,-0.10431957257915973,-0.7522280217283919
1684062007562846600,6.7242470703125,-0.12248411772859734,-0.010081291307422115,-0.6793460249931011
1684062007572888800,6.7342890625,-0.12449911248934367,0.032920837409761886,-0.5395931005775327
1684062007582931100,6.74433154296875,-0.012468188872937077,0.023071289053840288,-0.5132102370558815
1684062007592973600,6.754373779296875,0.05370172871310816,0.17323589326706332,-0.47120136008736696
1684062007603015600,6.764416015625,0.028025984822964502,-0.05824184422897062,-0.295871853893111
1684062007613058000,6.774458251953125,0.06200361249610093,0.21825981132776773,-0.2056612969671168
1684062007623100300,6.784500732421875,0.08753386134076868,0.1540069580456523,0.15413987637664633
1684062007633142400,6.79454296875,0.25681868187557577,0.055379867573733955,0.4773926733802111
1684062007643184800,6.804585205078125,0.6692921518187435,0.35313320175132823,0.619775891297823
1684062007653227200,6.814627685546875,0.8610250949869178,-0.06333732601152021,0.4269832372880154
1684062007663269600,6.824669921875,0.5991274117341212,-0.14100456233693462,-0.33582222463216327
1684062007673311600,6.834712158203125,-0.12737166892101323,-0.23854160315930686,-0.7716482282194246
1684062007683354000,6.84475439453125,-0.43829858302861974,-0.3190088271745688,-0.8441173434530183
1684062007693396100,6.854796630859375,-0.08517181882521367,-0.3997468948670181,-1.538721084598785
1684062007703438600,6.8648388671875,0.3639213443523348,-0.4361190795553934,-2.744090557050515
1684062007713480900,6.87488134765625,0.33015602815930895,-0.41343307482540215,-2.6995258332219034
1684062007723523200,6.884923583984375,0.46377217770038204,-0.2762298584439102,-2.408364772813315
1684062007733565400,6.8949658203125,0.1679044365827772,-0.1549005509900775,-1.8928449153494389
1684062007743607600,6.905008056640625,-0.1455617844859238,0.04252433790680017,-1.4168709515725502
1684062007753650100,6.915050537109375,-0.4638205767759805,0.1099529266058463,-0.9472432733126908
1684062007763692200,6.925092529296875,-0.7877675294147358,-0.08138275140814782,-1.0209202766517849
1684062007773734600,6.935135009765625,-0.8631339667900985,-0.18448638912804816,-0.8609737157423989
1684062007783776900,6.94517724609375,-0.5714821218775774,-0.2036962508688345,-0.7846078278176959
1684062007793819300,6.9552197265625,-0.22840383655066668,-0.43282127381492014,-0.5657684801797368
1684062007803861400,6.96526171875,-0.1304363907515228,-0.589797019876657,-0.6397223473301052
1684062007813903800,6.97530419921875,-0.3142865598137944,-0.6365957258670742,-0.5469539164744837
1684062007823946200,6.9853466796875,-0.41081628198825226,-0.6764335631583085,0.2492970227528855
1684062007833988300,6.995388671875,-0.5443772673710611,-0.7039937972537528,0.190853714937198
1684062007844030600,7.00543115234375,-0.48915320639072474,-0.9864339827320606,0.40323758119155917
1684062007854073000,7.015473388671875,-0.7789779901750533,-1.163267135733805,0.06577682499015992
1684062007864115100,7.025515625,-0.7450145482878721,-1.308779716522375,-0.4586485624169178
1684062007874157600,7.035557861328125,-0.41502404204877497,-1.5231170654554127,-0.7385966777576992
1684062007884199900,7.045600341796875,-0.09381696575792138,-1.5386476517019934,-0.7466592788032047
1684062007894242000,7.055642333984375,0.01929023869497158,-1.5756950379425045,-0.825807690430814
1684062007904284300,7.065684814453125,0.0006084143862470464,-1.5264225005356136,-0.9450659750383696
1684062007914326600,7.07572705078125,-0.06596168871971667,-1.2906799315153366,-0.9503754377323278
1684062007924368800,7.085769287109375,-0.05220896015153723,-0.9264917372626158,-0.7882577180684197
1684062007934411200,7.0958115234375,-0.2610092163947423,-0.5683631896973929,-0.5093811751398961
1684062007944453600,7.10585400390625,-0.6161305308444192,-0.054522514284713226,-0.44122874745227164
1684062007954495600,7.11589599609375,-0.6325691343492647,0.3753786088174862,-0.2929487229971757
1684062007964538000,7.1259384765625,-0.36582338805292836,0.6970653534964298,0.008065819842062272
1684062007974580400,7.135980712890625,-0.048348486563274354,0.7961969376285528,0.33615028847142314
1684062007984622600,7.14602294921875,-0.061661064558868654,1.0011863707837902,0.6570627689872739
1684062007994664900,7.156065185546875,-0.31259047991569733,0.8382062913043244,1.251147866132229
1684062008004707200,7.166107666015625,-0.5182621477764948,0.6391487122804876,1.9047466516104554
1684062008014749600,7.17614990234375,-0.7142978907197373,0.33690547944859034,2.4297456742639403
1684062008024791700,7.186192138671875,-0.7547278404553769,0.1924571990914179,2.5014398098020103
1684062008034834100,7.196234375,-0.44140684605278213,0.3425464629472074,2.279418706910432
1684062008044876200,7.206276611328125,-0.16753387445652398,0.48240280150886633,2.0991387366775793
1684062008054918600,7.216319091796875,-0.00163960445573871,0.6153812407962768,2.1987247466111763
1684062008064960900,7.226361328125,0.05917775629819403,0.6415061952232797,2.242194175880879
1684062008075003300,7.23640380859375,-0.0004968643978520466,0.4610443114832735,2.099537849401354
1684062008085045400,7.24644580078125,-0.1921353340558001,0.00043010698109337037,1.9946261644397607
1684062008095087800,7.25648828125,-0.4803762436848938,-0.30555248261817775,1.7450181245601333
1684062008105130200,7.266530517578125,-0.5990169049165944,-0.42703723913187785,1.8852475881995703
1684062008115172300,7.27657275390625,-0.30674600606737046,-0.3854722976088437,1.9081926345854419
1684062008125214600,7.286614990234375,-0.22549295437099504,-0.6536235809706942,1.9447692631715874
1684062008135257000,7.296657470703125,-0.06988334639302002,-0.7313547135269545,1.7416813373990565
1684062008145299100,7.306699462890625,0.12351608275895246,-0.5908470154060723,1.6590498685391686
1684062008155341600,7.316741943359375,0.1650931835157583,-0.44167137139798435,1.5656510591475186
1684062008165383900,7.3267841796875,0.3898224830922953,0.05206489582026068,0.9352658987588808
1684062008175426000,7.336826416015625,0.9124841688580622,0.42862606039153595,0.45296931265381735
1684062008185468300,7.34686865234375,1.5614135264636544,0.7222957612092675,0.06605613230171332
1684062008195510600,7.3569111328125,1.9561895131370208,0.738607406664707,-0.4112488032314119
1684062008205552800,7.366953125,1.96781361114213,0.7011814118301125,-0.4888011216999243
1684062008215595200,7.37699560546875,1.6432549952539792,0.669852256696332,-0.4585251806793089
1684062008225637600,7.387037841796875,1.257387876450812,0.8741464616403284,-0.48082268238264997
1684062008235679900,7.397080322265625,0.915607929163734,1.045841217023745,-0.30562639244637746
1684062008245722000,7.407122314453125,0.8114688396975263,1.2679958344206292,0.23789346233554168
1684062008255764400,7.417164794921875,0.8293740749530288,1.6144437790616946,0.9756247996821649
1684062008265806600,7.42720703125,0.8238255977281884,1.6795916557557464,1.5295419691347418
1684062008275848900,7.437249267578125,0.8394575118905028,1.794870376589603,1.921209096995826
1684062008285891200,7.447291748046875,0.4307663441516791,1.687719345140299,2.3144273758231892
1684062008295933600,7.457333984375,0.10562634457833796,1.7409319877264067,1.9728990793874976
1684062008305975600,7.467376220703125,-0.07900786408918636,1.424341201864697,2.020194768986855
1684062008316018100,7.47741845703125,-0.10034561140535878,0.7202434538213311,1.998139262217001
1684062008326060500,7.4874609375,-0.08136773118318147,0.2991714476370842,1.5879330633902806
1684062008336102600,7.4975029296875,0.2369353770681728,-0.1307306289465506,1.1859202385016159
1684062008346144900,7.50754541015625,0.3478021621771169,-0.44849967960429343,0.7694237231194394
1684062008356187300,7.517587646484375,0.32429695113157014,-0.1174068450865811,0.16651856899243772
1684062008366229400,7.5276298828125,0.3977584837131044,-0.1285486222054768,0.13898086555984743
1684062008376271800,7.537672119140625,0.10191273696733592,0.15547561641351743,-0.49821507940803805
1684062008386314200,7.547714599609375,0.1925971507394429,0.6442861555341393,-0.7891666888907652
1684062008396356300,7.557756591796875,0.29316329954710274,1.0847930908883066,-0.3111323117884208
1684062008406398600,7.567799072265625,0.17202544223270086,1.0466241835621248,-0.3645069600429025
1684062008416441000,7.57784130859375,-0.021945238067356838,0.8130302429998573,-0.5249644518833352
1684062008426483100,7.587883544921875,-0.11456871027683407,0.5109834670600994,-0.42938077460243423
1684062008436525600,7.59792578125,-0.568021535822759,0.4534168243526425,-0.63731014731735
1684062008446567900,7.60796826171875,-0.8371901512332,0.2919216155130397,-0.25862467282282164
1684062008456610000,7.61801025390625,-1.261335134409991,0.12047481524062126,-0.17391002190260896
1684062008466652300,7.628052734375,-1.743472576142086,0.05899810792555178,-0.3282562494114303
1684062008476694600,7.63809521484375,-1.929109811845721,-0.06427860264128342,-0.6578537225649844
1684062008486737100,7.648137451171875,-1.8371024131071296,-0.12177085864794024,-1.1839958430335686
1684062008496779200,7.6581796875,-1.6673488618280339,-0.21357536328184784,-1.4639188050605056
1684062008506821600,7.668221923828125,-1.351590156489453,-0.17457294474801408,-1.8084022998390674
1684062008516863600,7.67826416015625,-1.0750021935353171,-0.3541860580674327,-1.9530199766537748
1684062008526906000,7.688306396484375,-0.528822660379346,-0.17167472828678246,-1.7148935793906142
1684062008536948400,7.698348876953125,-0.6812853812530153,-0.055534362756603096,-1.7931455372673293
1684062008546990800,7.70839111328125,-0.8311622143077144,-0.06938076018489754,-1.5277028084980044
1684062008557032900,7.718433349609375,-0.7750680446793949,0.02658271783005065,-1.0853462219819503
1684062008567075200,7.7284755859375,-0.6494247912922708,0.3246984483499187,-0.8091075418746062
1684062008577117600,7.73851806640625,-0.5059072969807331,0.7128515242603239,-0.5518363715372809
1684062008587159700,7.74856005859375,-0.4998900889998642,0.9362239836810728,-0.17932856087495072
1684062008597202100,7.7586025390625,-0.760741710701881,0.886186599831707,0.23058736314360745
1684062008607244500,7.768644775390625,-1.2822201252523988,0.7142553329288572,0.6907700299638511
1684062008617286600,7.77868701171875,-1.4114968776989782,0.40494441990375535,1.1495372057262128
1684062008627328900,7.788729248046875,-0.9888978004412549,-0.001070022679763628,1.3949340582570298
1684062008637371300,7.798771728515625,-0.5106401443307715,-0.6385202408024759,1.5216394664110668
1684062008647413400,7.808813720703125,-0.05195260038345586,-1.2592267989983181,1.8117376566749113
1684062008657455800,7.818856201171875,0.5868488549906351,-1.8215255738828993,1.916315793978115
1684062008667498200,7.828898681640625,1.0995790959059133,-2.1864795685422402,1.9263241291230244
1684062008677540300,7.838940673828125,1.334619283621144,-2.096206665027161,1.829047560755326
1684062008687582600,7.848983154296875,1.3076553344647572,-1.856186866653002,1.8750370741155813
1684062008697625000,7.859025390625,1.2511007784195807,-1.211106300319506,1.7842713595775899
1684062008707667100,7.869067626953125,1.3734049797892434,-0.46659183496385775,1.7198302746790597
1684062008717709600,7.87910986328125,1.3323929310401035,0.21599006666433465,1.6895651817176618
1684062008727751900,7.88915234375,1.0907688141158183,0.6585597990585436,1.7934764622252246
1684062008737794000,7.8991943359375,0.7619626520463102,1.0435009002941706,1.8545395137328224
1684062008747836300,7.90923681640625,0.5516993999344866,1.3302192688817132,1.9922884702036474
1684062008757878600,7.919279052734375,0.6766601800470626,1.4017906189517788,1.8356384040556097
1684062008767921100,7.929321533203125,0.8045452834089524,1.0548934937923125,2.051972866122425
1684062008777963200,7.939363525390625,0.807644426853058,1.2241334915372526,1.4560744763050852
1684062008788005600,7.949406005859375,0.7903202176122911,0.9835872651967518,1.271123289953561
1684062008798047600,7.959447998046875,1.2596141099384677,0.5923652649957208,0.9576442241771999
1684062008808090000,7.969490478515625,1.6906316281714924,0.4456367492479494,0.6367979049969358
1684062008818132400,7.97953271484375,1.608912825550885,0.2223243713567828,0.6098423003541403
1684062008828174800,7.9895751953125,1.2638972998847657,-0.11864280690765375,0.3533596992891376
1684062008838216900,7.9996171875,0.8557128309676196,-0.5152273178739772,0.21525835986469508
1684062008848259200,8.00965966796875,0.5503673554621874,-0.8192873001056632,0.14056897162762244
1684062008858301400,8.01970166015625,0.5303659439461293,-1.0616531371490936,0.035145878801878014
1684062008868343600,8.029744140625,0.7264346479270771,-1.0813760758835826,-0.15032279496217316
1684062008878386100,8.039786376953124,0.852379202818524,-0.9067907334220963,-0.2916787863085588
1684062008888428500,8.049828857421875,0.8005268574151329,-0.6385726929135556,-0.36944770803502003
1684062008898470600,8.05987109375,0.6781322956508353,-0.449242591790734,-0.5085110665238184
1684062008908512900,8.069913330078125,0.6503130197115119,-0.2549200059004432,-0.6553168891757936
1684062008918555300,8.079955810546876,0.7231508492535527,-0.18438148502741242,-0.6586955188281524
1684062008928597400,8.089997802734375,0.7042337657164986,-0.020028114405438033,-0.5723445415821772
1684062008938639800,8.100040283203125,0.18025815476041038,-0.0040779113326827685,-0.21593821038983552
1684062008948682200,8.11008251953125,-0.10320055472641705,0.056541442961848994,0.04751026621714465
1684062008958724300,8.120124755859376,-0.013518333294522792,0.1328926087364574,0.21348619473859148
1684062008968766600,8.1301669921875,0.1901110410402915,0.21061515796527888,0.2602249384266424
1684062008978809000,8.14020947265625,0.37435454124339124,0.2516975403569503,0.19269120702361092
1684062008988851100,8.15025146484375,0.47058528662905397,0.35422420498654095,0.2609674930160963
1684062008998893600,8.1602939453125,0.44718438370692415,0.37701892852986274,0.3056120873159108
1684062009008935900,8.170336181640625,0.4721043706173009,0.41572666162947036,0.3407647609783107
1684062009018978000,8.18037841796875,0.37438321127763513,0.37696456912573456,0.3610430957617403
1684062009029020300,8.190420654296876,0.5192021131299168,0.320757865815202,0.19748675815260475
1684062009039062600,8.200463134765625,0.7182279823690559,0.2712965011081896,-0.03867948053770362
1684062009049104800,8.210505126953125,0.769896626507833,0.1904325485257822,-0.04146325582805462
1684062009059147200,8.220547607421874,0.6906890869296076,0.04499435421105124,0.1442031860113097
1684062009069189600,8.23058984375,0.3304159641547963,-0.04521179206980899,0.35713779914415433
1684062009079231600,8.240632080078125,-0.0724606513839482,-0.10674285882821355,0.6162995098531127
1684062009089274000,8.25067431640625,-0.33943784225622653,-0.07787227624203549,0.5983608960095416
1684062009099316400,8.260716796875,-0.339984059303904,-0.05688381179149919,0.2803173063389487
1684062009109358600,8.270759033203126,-0.1933153272049322,-0.05093765242997215,-0.054963827018241714
1684062009119400900,8.28080126953125,0.09391069394601247,-0.09095191958853766,-0.2930443287323384
1684062009129443200,8.29084375,0.3136408029678981,-0.16929626466841105,-0.5645886660369195
1684062009139485600,8.300885986328124,0.4454778135105168,-0.21642780305041076,-0.7138638496293634
1684062009149527700,8.31092822265625,0.4607726634438646,-0.19429397585726202,-0.7798833848189647
1684062009159570100,8.320970458984375,0.42913398143304166,-0.1652021408203075,-0.9397192000931379
1684062009169612200,8.3310126953125,0.36554539201394887,-0.22956371306783807,-1.0452606677907634
1684062009179654600,8.341054931640626,0.2899734675143493,-0.2558374404992462,-1.1370687483246325
1684062009189696900,8.351097412109375,0.22514343253705185,-0.3134145735919467,-1.210100889166307
1684062009199739300,8.3611396484375,0.16551852224128394,-0.38558959964182066,-1.235552787689195
1684062009209781400,8.371181884765624,0.130950868232629,-0.381563186600399,-1.330260992105604
1684062009219823800,8.38122412109375,0.1688275337809826,-0.43276119226633,-1.441093087379828
1684062009229865900,8.391266357421875,0.20444396125167588,-0.452973365883406,-1.4841781854544023
1684062009239908300,8.40130859375,0.10625910762405343,-0.45182991046837623,-1.4741237164571657
1684062009249950600,8.41135107421875,0.013575613399187707,-0.467548370373741,-1.4536943435022402
1684062009259993000,8.421393310546875,-0.09199935203108887,-0.44742393505456013,-1.4818208217572268
1684062009270035100,8.431435546875,-0.21187400818088084,-0.460828781045913,-1.5128393173530787
1684062009280077600,8.441477783203124,-0.2744251490954654,-0.4671087264608476,-1.577933072981611
1684062009290119600,8.45152001953125,-0.18053263429808464,-0.4973201751726849,-1.622381925634045
1684062009300162000,8.461562255859375,-0.015937566585365267,-0.4939069748697785,-1.6555726527613006
1684062009310204300,8.471604736328125,0.10816401242281483,-0.3851299285506528,-1.6652530431889208
1684062009320246600,8.481647216796874,0.18891155733930953,-0.26318264011669384,-1.5654243230613767
1684062009330288800,8.491689208984376,0.18407088509839206,-0.18337535864659835,-1.415506124569179
1684062009340331200,8.501731689453125,0.13503664726988462,-0.06282806384448111,-1.1583920715895315
1684062009350373300,8.511773681640625,0.061657547974609116,-0.017739295943808672,-0.8575955630115598
1684062009360415600,8.521816162109374,-0.06739276649728873,-0.06577491762650942,-0.5465644598100781
1684062009370458000,8.5318583984375,-0.1716115475019368,-0.1841011046591495,-0.2782351970892104
1684062009380500400,8.54190087890625,-0.21472251419882707,-0.38569545751060563,-0.008808374346571267
1684062009390542600,8.55194287109375,-0.1478900908907214,-0.6737928390334582,0.05770111072568598
1684062009400584900,8.5619853515625,0.08613157272718062,-0.9731626510865167,-0.03393316257803425
1684062009410627000,8.57202734375,0.398452639649929,-1.1609973905834716,-0.14792227741797576
1684062009420669400,8.58206982421875,0.6145768165189796,-1.2130413055770528,-0.3495615719893642
1684062009430711600,8.592112060546874,0.672687113395156,-1.3638801575000379,-0.5595955848365755
1684062009440754100,8.602154541015626,0.6361885071772041,-1.3132772444886835,-0.38146436214612256
1684062009450796200,8.612196533203125,0.37619328513419653,-1.058127403254364,0.020109415067546054
1684062009460838600,8.622239013671875,-0.01246154315844414,-0.8297090529821686,0.8089046477396749
1684062009470880600,8.632281005859374,-0.34029650685613877,-0.42604064932739466,1.2976803780379076
1684062009480923100,8.642323486328126,-0.5046902894394142,-0.09633254987615164,1.7602040767914726
1684062009490965400,8.65236572265625,-0.5581614969791587,0.09482955935788295,2.2017374038035515
1684062009501007800,8.662408203125,-0.519193887710924,0.1451978682706704,2.6507763862722147
1684062009511049900,8.6724501953125,-0.621556639613321,0.277828216540314,2.620327949510261
1684062009521092300,8.68249267578125,-0.7292859554372698,0.3598527906779541,2.405534267393181
1684062009531134400,8.69253466796875,-0.8499476909350667,0.34597778319297995,2.2057156564474307
1684062009541176800,8.7025771484375,-1.0556550026042926,0.1855783462019835,1.8069603444494475
1684062009551219100,8.71261962890625,-0.7367691994488303,0.4190254212918509,1.5898311137368697
1684062009561261600,8.722661865234375,-0.39128661144560556,0.6836576462114696,1.762362003436597
1684062009571303600,8.7327041015625,-0.36397171030997755,0.4673624038790782,0.976067781474386
1684062009581346000,8.742746337890624,-0.36342811584174983,0.5856113433343538,0.93470072741307
1684062009591388100,8.75278857421875,0.10388493554970694,0.29032993322797984,0.7532203197042683
1684062009601430400,8.762830810546875,0.5876932142804077,0.21127796155836556,0.19990348807331115
1684062009611472800,8.772873291015625,0.6947207451648862,0.16885471345454892,-0.3024702072758198
1684062009621515200,8.78291552734375,0.802359104138157,0.1783618925721266,-0.33386063587483295
1684062009631557300,8.792957763671875,0.9299387932745858,0.30667114255461614,-0.2762567997056591
1684062009641599600,8.803,0.8154544828899554,0.32954311381709644,-0.023264408159758092
1684062009651641800,8.813042236328124,0.6696510314496479,0.43192291260357785,0.21196317679457904
1684062009661684100,8.82308447265625,0.6494297982362163,0.5885744096453402,0.4442830085654802
1684062009671726600,8.833126953125,0.6761665343701623,0.7465219496961044,0.55855178815628
1684062009681768900,8.843169189453125,0.6947531699831815,0.758097648624802,0.5750138760475876
1684062009691811000,8.85321142578125,0.6505422591969015,0.7863292695286331,0.5997965335610705
1684062009701853400,8.863253662109376,0.44831395156150566,0.7427749634042716,0.6257314681122529
1684062009711895600,8.8732958984375,0.2311215400411984,0.7564039229199079,0.5826232433574529
1684062009721937800,8.883338134765625,-0.06999588012947104,0.6568470000070521,0.43566298484691013
1684062009731980200,8.893380615234374,-0.29904508596412965,0.605935096758447,0.21197056765089262
1684062009742022600,8.903423095703126,-0.5038590430872053,0.49745178217622754,0.021095037415276588
1684062009752064600,8.913465087890625,-0.5984501838949616,0.6269407271608474,-0.20595574379086995
1684062009762107100,8.923507568359375,-0.6678605079788864,0.7118301391336406,-0.48749852175065767
1684062009772149200,8.933549560546876,-0.6053612231831195,0.7498664855163577,-0.5637524128990022
1684062009782191600,8.943592041015625,-0.5502166748364887,0.6844062806040875,-0.6108305454343339
1684062009792233900,8.95363427734375,-0.5332033635167184,0.56167697908926,-0.5504400729286976
1684062009802276000,8.963676513671874,-0.5925467015528196,0.3797388077112406,-0.537250041980204
1684062009812318400,8.97371875,-0.7744870185079555,0.326815605308642,-0.48553514493863675
1684062009822360800,8.98376123046875,-0.8483691215241858,0.16566467291577583,-0.2548434735081607
1684062009832402900,8.99380322265625,-0.9571912288088306,0.1258106232528592,-0.03125381470150925
1684062009842445200,9.003845703125,-1.1014964579836093,-0.007704734757369795,0.17352128028790575
1684062009852487600,9.013887939453124,-1.0675761699820348,-0.08364295953764736,0.34791088114546725
1684062009862529600,9.02393017578125,-0.9193358421801607,-0.02509880069816538,0.5234904289033496
1684062009872572100,9.033972412109376,-0.6956014632911363,0.07916545867748145,0.7593739033262304
1684062009882614400,9.044014892578126,-0.5418667793560131,0.14762783055736076,0.699336052057286
1684062009892656600,9.054056884765624,-0.4147047995091715,0.15411758423706814,0.46624875050736325
1684062009902698900,9.064099365234377,-0.29990220064379336,0.24680709850572016,0.21542668331033948
1684062009912741300,9.0741416015625,-0.28642511366252926,0.22225475303991257,0.09586977957436062
1684062009922783400,9.084183837890626,-0.33887028691809223,0.17368412027710875,0.000703096443604985
1684062009932825800,9.09422607421875,-0.5078344344695941,0.026543617285205826,-0.11527585977054855
1684062009942868100,9.1042685546875,-0.5232183931530413,0.02435684207536244,-0.27170348176272674
1684062009952910300,9.114310546875,-0.1445403098867235,0.04824543002687186,-0.25581574432770243
1684062009962952600,9.12435302734375,0.3027369975082502,0.10730552666768295,-0.21987724309518872
1684062009972995000,9.1343955078125,0.5175514221766069,0.08056545260035351,-0.19258689883314237
1684062009983037100,9.1444375,0.5612695216784421,0.05845928204663163,-0.12654232977791824
1684062009993079500,9.15447998046875,0.6253414152707646,-0.038278579679604366,-0.11166477203430761
1684062010003121800,9.164522216796875,0.48740100874855835,-0.08302402495087907,-0.17718553533937062
1684062010013164000,9.174564453125,0.328160524338959,-0.13839817054239933,-0.20578885064583707
1684062010023206300,9.184606689453124,0.29351449012885866,-0.14480876926950476,-0.15957522390826517
1684062010033248600,9.194649169921876,0.36784958837814496,-0.06845855718648296,-0.1863501072782939
1684062010043290800,9.204691162109375,0.39578795434279945,0.033079147293016954,-0.08767485616212448
1684062010053333200,9.214733642578125,0.3617975711966144,0.18555068981741116,-0.06935238853742107
1684062010063375600,9.22477587890625,0.307736396836856,0.34033584607453915,0.15197014808239417
1684062010073417600,9.234818115234376,0.2242946625752716,0.4206066131396158,0.23311972615055795
1684062010083460000,9.2448603515625,0.12579178804317379,0.48616600040809144,0.2743122578002963
1684062010093502400,9.25490283203125,-0.021129608250020294,0.5010452271605687,0.4373958110704267
1684062010103544600,9.26494482421875,-0.11625194535628909,0.46063995368342786,0.46398425106936303
1684062010113586900,9.2749873046875,-0.0713238716290622,0.36060905457421244,0.4701342581861319
1684062010123629200,9.285029541015623,0.0319929123503729,0.3372735977168506,0.5204162596665525
1684062010133671300,9.29507177734375,0.08836936956866631,0.30870437614933705,0.5082824231672302
1684062010143713600,9.305114013671876,0.07588553408876479,0.4012546539205022,0.4187595843156354
1684062010153756100,9.315156494140624,0.20713639256820074,0.4274129867061407,0.34171819703440104
1684062010163798200,9.325198486328125,0.30846524236019673,0.41593074800127794,0.2254226209165873
1684062010173840600,9.335240966796874,0.2909955976992618,0.3180294036020923,0.1814601422681971
1684062010183882900,9.345283447265626,0.1755878924535082,0.17196559899128427,0.22746944438155065
1684062010193925000,9.355325439453123,0.11799716943177392,0.07703399663855745,0.3548340796942434
1684062010203967400,9.365367919921876,0.12568569179047803,-0.01445102698687245,0.4840955733971588
1684062010214009800,9.37541015625,0.07436370847032507,-0.12617588040108502,0.573778390974489
1684062010224051900,9.385452392578124,-0.08545923216146803,-0.20415687566382934,0.6619646549689355
1684062010234094300,9.39549462890625,-0.1598243713132209,-0.23267078391138965,0.6791646481763995
1684062010244136600,9.405537109375,-0.14592003822939895,-0.263911247273704,0.5592689513000105
1684062010254178700,9.4155791015625,-0.08627963067456466,-0.25252151487298247,0.505564212772873
1684062010264221100,9.42562158203125,-0.062284946491639424,-0.25285720836138564,0.3910272121490619
1684062010274263600,9.435663818359377,-0.017516136103730914,-0.1418800355507812,0.3657891750684951
1684062010284305600,9.4457060546875,-0.024189233852276722,-0.11199760447023549,0.38258361818892694
1684062010294348000,9.455748291015626,-0.01570630074175841,-0.07484722125159846,0.44954085341343797
1684062010304390100,9.46579052734375,0.07612991329972871,-0.02607727064856427,0.5722291469227263
1684062010314432400,9.475832763671876,0.17298412324063495,0.02665233621105953,0.6031203271866019
1684062010324474800,9.485875244140624,0.22207665435259805,0.045092582815225817,0.6448075771236395
1684062010334517200,9.49591748046875,0.26669240007970957,0.12602424616733987,0.6277134419599804
1684062010344559300,9.505959716796877,0.3902602196332581,0.2026529312971263,0.6645967959186154
1684062010354601600,9.516001953125,0.5384225843500005,0.2542448044673999,0.6932485105169446
1684062010364643800,9.526044189453126,0.5868301391396865,0.2882013320155233,0.7334425450360743
1684062010374686100,9.53608642578125,0.5881340502486943,0.28326225274309896,0.7596123217026842
1684062010384728600,9.54612890625,0.5650227070158177,0.2327079772159618,0.799918174832094
1684062010394770600,9.5561708984375,0.5555415154818225,0.30456256854100006,0.8003859519701877
1684062010404813000,9.56621337890625,0.5614554881991028,0.3275423049591118,0.8846588134436887
1684062010414855300,9.576255859375,0.5161337852103505,0.39921760556565,0.8586521149717508
1684062010424897500,9.5862978515625,0.43412208556608023,0.34470939641036924,0.9031498432568077
1684062010434939800,9.59634033203125,0.3555967808155035,0.2580394745938216,0.8967773913073765
1684062010444982200,9.606382568359376,0.3340694905625497,0.13536834732050312,0.9657673834720398
1684062010455024300,9.6164248046875,0.2996623515496385,0.06465244304597115,0.9890086650582381
1684062010465066600,9.626467041015625,0.2272014616610962,-0.013976096967747513,0.9790723322552869
1684062010475109000,9.636509521484374,0.15125513072696534,-0.08652877818032038,0.9837045669833495
1684062010485151200,9.646551513671875,0.1316554545664052,-0.049514770467987426,0.9378170966671895
1684062010495193600,9.656593994140623,0.14403223999076134,-0.04128932956647611,0.9130308629286273
1684062010505235900,9.66663623046875,0.04864001283101177,-0.026198387162619203,0.8633711336872496
1684062010515278000,9.676678466796876,-0.10562443733255136,0.014317512476840474,0.7533435820765078
1684062010525320400,9.686720703125,-0.09841775908953322,-0.026508331297059633,0.6417825220754964
1684062010535362700,9.69676318359375,-0.09233140948383976,-0.04842185975741608,0.4795520305926461
1684062010545404800,9.70680517578125,-0.09644722938366407,-0.10354232801947802,0.41141915307223875
1684062010555447200,9.71684765625,-0.1223449707063663,-0.1206922531458142,0.2757470608729433
1684062010565489300,9.7268896484375,-0.12514042865330977,-0.12393569953670004,0.19154620159850475
1684062010575531600,9.73693212890625,-0.12196564676022194,-0.13453102097142772,0.11117935191814517
1684062010585574100,9.746974365234376,-0.09700822821712682,-0.13786220543384506,0.009420871650690391
1684062010595616200,9.7570166015625,0.01216888420478608,-0.05832862860291267,0.0025618076707119197
1684062010605658600,9.767058837890623,0.08810257914265628,0.04653358457676984,0.014178037635495272
1684062010615700900,9.777101318359374,0.09336543074227284,0.13156700117141235,0.0483121872510601
1684062010625743000,9.787143310546876,0.14906811697992464,0.21568012238429823,0.0870237350729522
1684062010635785400,9.797185791015623,0.22608160969058877,0.29861354820977104,0.20922803875927404
1684062010645827800,9.807228271484377,0.20869922626289547,0.28829669961721677,0.19592618939014497
1684062010655869900,9.817270263671874,0.26108312606200934,0.2826194762784602,0.2159993648196144
1684062010665912200,9.827312744140626,0.32824945457736376,0.38286113739449035,0.14025092136313078
1684062010675954600,9.83735498046875,0.3866479395936739,0.3778038024902484,0.14972567556893027
1684062010685996600,9.847397216796876,0.3397479058246894,0.3209657670529251,0.13679528233004704
1684062010696039100,9.857439453125,0.32311940191128774,0.24641036988110088,0.04582023620622416
1684062010706081500,9.86748193359375,0.33366036413409034,0.2840185165313421,-0.013458728749835594
1684062010716123600,9.87752392578125,0.36550688749751536,0.3049993516071373,-0.0038900376916916517
1684062010726165900,9.88756640625,0.3519945144565407,0.29794597619348184,0.030935287366747267
1684062010736208300,9.897608642578126,0.3503236771214985,0.24681663501588064,0.09989953033325097
1684062010746250400,9.90765087890625,0.34362173072563107,0.19471836094603207,0.1434309483709703
1684062010756292800,9.917693115234377,0.29405236245918076,0.0991792679090421,0.15193438520702274
1684062010766334900,9.9277353515625,0.30044817927172024,0.003423690924396307,0.09988665574408516
1684062010776377300,9.937777587890626,0.34612512590874084,-0.09722232817788917,0.1470031738269159
1684062010786419600,9.947820068359375,0.3309876917684125,-0.13224411009710976,0.19629454621630518
1684062010796462000,9.9578623046875,0.3206350802661269,-0.17584037782958398,0.2506499290906587
1684062010806504100,9.967904541015624,0.4040062427105922,-0.22999000543401643,0.30570125584420144
1684062010816546600,9.97794677734375,0.37835621843268924,-0.17895984653998878,0.3235166073475569
1684062010826588600,9.987989013671877,0.39469492418732915,-0.10905742634459242,0.37713098524444116
1684062010836631000,9.99803125,0.4039473532941358,-0.140884399520189,0.5206484794771931
1684062010846673300,10.00807373046875,0.30814707285523635,-0.1976757047898895,0.5407056808471686
1684062010856715400,10.01811572265625,0.22680532934627132,-0.15926265704333228,0.5511012077362231
1684062010866757800,10.028158203125,0.22044277191307596,-0.013512611462828686,0.6581158636436275
1684062010876800200,10.03820068359375,0.19654798514830538,0.09393024448104885,0.6571888924646273
1684062010886842300,10.04824267578125,0.14358901976387844,0.11898517613708162,0.575955867702129
1684062010896884600,10.05828515625,0.08330285549956322,0.12869071954851552,0.6149489879470225
1684062010906927000,10.068327392578125,0.011082529976189725,0.12335300456577873,0.5345053671903601
1684062010916969100,10.07836962890625,0.0511332751866021,0.11339950559768584,0.31739425663635734
1684062010927011600,10.088411865234375,0.302737712879947,0.09063911444098387,-0.017771244126310076
1684062010937053900,10.098454345703123,0.7089967728017386,0.1434459686170813,-0.3031673432495179
1684062010947096000,10.108496337890625,0.9688783289410776,0.006974220240834709,-0.4105541705913178
1684062010957138400,10.118538818359376,1.1128630638810288,-0.03625583639297696,-0.3694276808586254
1684062010967180600,10.1285810546875,1.1517097950822939,-0.09682655344985305,-0.15351080884408896
1684062010977222800,10.138623291015625,1.0461680888962084,-0.055809974767884976,-0.022919654814748322
1684062010987265200,10.14866552734375,0.7536052464298842,0.206689834537237,0.1652123929160663
1684062010997307300,10.158707763671876,0.532132744679392,0.3001613616781497,0.3159742354392779
1684062011007349600,10.16875,0.25582921511115925,0.1410531997439787,0.21834015833964493
1684062011017392000,10.17879248046875,-0.12692618366984343,-0.1059284210101982,0.18834853181681513
1684062011027434400,10.188834716796874,-0.7312251329330443,-0.13346099868083866,0.27522969259623464
1684062011037476600,10.198876953125,-0.9836428164396626,0.029698371781939976,0.05686187730755354
1684062011047518900,10.208919189453123,-0.3922562598460899,-0.07096767427075,-0.32201075546928676
1684062011057561000,10.21896142578125,0.0017648935629746504,-0.23519706713206165,-0.5154840947112644
1684062011067603400,10.229003662109376,-0.26742279516018097,-0.2501993179764093,-0.49173021310448517
1684062011077645700,10.239046142578124,-0.7912561892423565,-0.14593887331443645,-0.32040882111440677
1684062011087687900,10.249088134765625,-1.1002389192734703,0.016978263886943245,-0.36256909372059726
1684062011097730200,10.259130615234374,-1.0114439726518336,0.016530036937292714,-0.6770424843094024
1684062011107772600,10.269173095703126,-0.5618255137071092,-0.08402156817398214,-1.0857843160662488
1684062011117814600,10.279215087890623,-0.039303540998390174,-0.26237678534583975,-1.5695919992075793
1684062011127857100,10.289257568359377,0.21577954295152918,-1.047018051065498,-1.523893237114632
1684062011137899400,10.2992998046875,0.27931642550635455,-1.935082435575965,-1.7367293833490263
1684062011147941600,10.309342041015626,0.13690471667275556,-2.1015396118233496,-1.9193096161840093
1684062011157983900,10.31938427734375,-0.0800576210000803,-2.006710052624515,-1.8774698972665782
1684062011168026300,10.3294267578125,-0.0033378600316280637,-1.6178455352434449,-1.9475466011681926
1684062011178068400,10.33946875,-0.054400861092481254,-1.0934820174815212,-2.0289075372948355
1684062011188110800,10.34951123046875,-0.369593858562251,-0.6039981842375688,-2.0208377838491973
1684062011198152900,10.35955322265625,-0.45943152900244,-0.20439338694066478,-1.984178781527494
1684062011208195200,10.369595703125,-0.375248551387597,0.05996704103442397,-1.8126107454161144
1684062011218237600,10.379637939453126,-0.2080686091301292,0.2395868301060974,-1.5407271386502037
1684062011228279600,10.38968017578125,0.048477530329037816,0.3305635452862895,-1.365611434087614
1684062011238322100,10.399722412109377,0.234808742920579,0.392997741671878,-1.131733655835707
1684062011248364500,10.409764892578124,0.32736772305106115,0.331103324889281,-0.938312411328349
1684062011258406600,10.419806884765626,0.3962213395541837,0.13551616682441261,-0.8427062035417529
1684062011268448900,10.429849365234375,0.4755400718769623,0.02862262725945803,-0.7537556886734231
1684062011278491300,10.4398916015625,0.5276373028660631,-0.013683319274916074,-0.6711455583114934
1684062011288533400,10.449933837890624,0.5748255253183588,-0.04181385034374525,-0.604443669327258
1684062011298575800,10.45997607421875,0.5129582882212492,-0.0748710631442698,-0.6533820628976839
1684062011308618200,10.4700185546875,0.2575738728046752,-0.14395904536636994,-0.6455875636381366
1684062011318660300,10.480060791015624,-0.11110270019399977,-0.10579109200706156,-0.6696542501454438
1684062011328702600,10.49010302734375,-0.39149004203207227,-0.07512855531565231,-0.5982611178218226
1684062011338744800,10.500145263671875,-0.42771410944293703,-0.06378459919545545,-0.49137353898618996
1684062011348787100,10.5101875,-0.3684901596033772,-0.09539127354557982,-0.46111357219406585
1684062011358829600,10.52022998046875,-0.2681254745666799,-0.0814170837822672,-0.5688134431604221
1684062011368871600,10.53027197265625,-0.17037773127026778,-0.09862899787401005,-0.7400996686650959
1684062011378914000,10.540314453125,-0.06462571016289896,-0.09463691696843128,-0.8939110040624177
1684062011388956300,10.550356689453125,-0.0600314735035131,-0.17942523942094987,-0.992458820302734
1684062011398998400,10.56039892578125,-0.07253283264714053,-0.24524784077860776,-0.9932423831059559
1684062011409040800,10.570441162109375,-0.18365570908482096,-0.33251476291838095,-0.9964559079183021
1684062011419083200,10.580483642578123,-0.401703924022716,-0.3837041855342515,-0.9659332037048274
1684062011429125300,10.590525634765624,-0.5939799548358734,-0.47779273988655097,-0.8422003983626267
1684062011439167600,10.600568115234376,-0.831997632934757,-0.512185096649792,-0.7644073964212997
1684062011449210000,10.6106103515625,-1.0370815992718314,-0.5109987259501159,-0.6799482106410766
1684062011459252100,10.620652587890625,-1.106371879613032,-0.5125818254166691,-0.7108054162946704
1684062011469294600,10.63069482421875,-1.0222523211388375,-0.4834079742407784,-0.803979754562599
1684062011479336600,10.640737060546876,-0.9322421551823155,-0.3422899245983243,-0.8852108717563228
1684062011489379000,10.650779296875,-0.8188868761558222,-0.23044204718921635,-1.0002651214788763
1684062011499421400,10.66082177734375,-0.6312456130696761,-0.11432361603744069,-1.1467862129336819
1684062011509463600,10.67086376953125,-0.3820514381440576,-0.07045841219177347,-1.296500206028866
1684062011519505800,10.68090625,-0.048113077988965094,0.04241847991383868,-1.434466123556938
1684062011529548200,10.690948486328123,0.31670621034556745,0.09048557279419656,-1.386272430485934
1684062011539590300,10.70099072265625,0.5677052140447979,0.1336221696334309,-1.2553073168526916
1684062011549632600,10.711033203125,0.6994064451682691,0.15043354048988913,-1.0703427791784712
1684062011559675100,10.721075439453124,0.7765282987757103,0.17936801906179406,-0.9383099078412821
1684062011569717200,10.73111767578125,0.8239498138898802,0.14867973331957018,-0.7779905796787027
1684062011579759600,10.741159912109374,0.7984652518106944,0.1086454391052749,-0.6659977436012825
1684062011589801900,10.751202392578126,0.8811460734894649,0.013874053959958792,-0.5093251466666423
1684062011599844000,10.761244384765623,0.8712630867250418,-0.03997993463906887,-0.3676934241456985
1684062011609886400,10.771286865234377,0.709915578277286,-0.18447399141955226,-0.11475539204699545
1684062011619928600,10.781328857421874,0.4744095207461855,-0.21392154691897813,-0.036869764421448195
1684062011629970900,10.791371337890626,0.2692819832195013,-0.22635650629115248,-0.025167941939849652
1684062011640013200,10.80141357421875,0.08205762507193393,-0.28641223914415714,0.0015826224633839177
1684062011650055300,10.811455810546876,-0.1757488846200423,-0.4133577347431813,0.12374711030807162
1684062011660097600,10.821498046875,-0.5079279542144013,-0.47105789190378783,0.19039630883312966
1684062011670140100,10.83154052734375,-0.6697164774634982,-0.7009372711076992,0.24957990654658005
1684062011680182200,10.84158251953125,-0.47301787135378065,-0.5743112564230637,-0.18408513074052654
1684062011690224600,10.851625,-0.21190124764086796,-0.5504589081567458,-0.3738546370599338
1684062011700266600,10.8616669921875,-0.07424357523132633,-0.4594478607047085,-0.5782941578553797
1684062011710309000,10.87170947265625,0.012966155877892155,-0.3492603302025613,-0.6162366866969796
1684062011720351400,10.881751708984376,0.09328952434455455,-0.1749172208988326,-0.7066600321596898
1684062011730393600,10.8917939453125,0.15961958468309867,-0.07769870768713351,-0.7308473586770656
1684062011740435900,10.901836181640626,0.2256115227209243,0.181292533938196,-0.9545581339678311
1684062011750478300,10.911878662109377,0.44017419220973286,0.3004455567319502,-0.955992579456053
1684062011760520400,10.921920654296876,0.5846186875970915,0.32326698304762835,-1.0671985149913066
1684062011770562700,10.931963134765626,0.7255378364544642,0.2571573257469881,-0.8748601675320073
1684062011780605100,10.942005615234375,0.9680190682320786,0.21469879141162068,-0.6419845819340927
1684062011790647200,10.952047607421877,1.0550585984741796,0.16957378398596115,-0.37596750263378165
1684062011800689600,10.962090087890624,1.0211850405979914,0.11215686794974504,-0.15622830408005894
1684062011810732000,10.97213232421875,0.8935039640098776,-0.07924842823196879,0.00825357442220342
1684062011820774100,10.982174560546875,0.6498281957035335,-0.21310710902319027,0.12126374236622262
1684062011830816400,10.992216796875,0.09303197265725191,-0.47326564783055874,0.022041559214179846
1684062011840858600,11.002259033203124,-0.47208717452392823,-0.5062189100608013,-0.14578199389006896
1684062011850900900,11.01230126953125,-0.6936615703731626,-0.2675609589180295,-0.3758406638315031
1684062011860943300,11.02234375,-0.7282025813911632,-0.3361120223978631,-0.46121644965020625
1684062011870985400,11.0323857421875,-0.29083627456794403,-0.5044689178732663,-0.7022902966073741
1684062011881027800,11.04242822265625,-0.10033509137774294,-0.4607334138461873,-0.825729489389066
1684062011891070100,11.052470458984375,-0.14358636736970812,-0.34894180287321797,-0.7017195224124131
1684062011901112200,11.0625126953125,-0.13043090702264792,-0.1768131255185972,-0.6259534358901995
1684062011911154600,11.072554931640624,0.025363862584345677,0.05986690512292745,-0.43732142457684997
1684062011921196600,11.08259716796875,-0.06759533291485079,0.19838809962899107,-0.27462768564823964
1684062011931239100,11.092639404296875,-0.3583083152063153,0.12856197351851611,-0.1580464840126856
1684062011941281500,11.102681884765625,-0.48371595136136397,0.005392074688090754,0.020635127890118933
1684062011951323600,11.112723876953124,-1.032730221576832,-0.5487527847645329,-0.15542149550164713
1684062011961365900,11.122766357421876,-0.9052241444512649,-0.4811944961444237,-0.2461128233295776
1684062011971408300,11.13280859375,-0.5972359179972275,-0.3203573227978266,-0.17783117288992817
1684062011981450400,11.142850830078125,-0.29254972947597785,-0.1979379653774403,-0.08595037451354468
1684062011991492800,11.15289306640625,0.23776799434920748,0.029651641792263556,-0.178256511613284
1684062012001535200,11.162935546875,0.4823920427721199,0.061421394270868,-0.5659527779963064
1684062012011577300,11.172977783203123,0.31013077500386954,0.07916831960732722,-0.686892986220152
1684062012021619600,11.18302001953125,0.021397888638826076,-0.03898620609389187,-0.9995635747668211
1684062012031662000,11.1930625,-0.15847873679695448,-0.4026927946560326,-1.381585836340541
1684062012041704100,11.2031044921875,-0.14438945066023479,-0.6459293365278173,-1.5892343520790284
1684062012051746600,11.21314697265625,-0.1584254502969307,-0.7263860701990971,-1.497922897321905
1684062012061788600,11.22318896484375,-0.2973281146093462,-0.6182184220356497,-1.2591326238447045
1684062012071831000,11.2332314453125,-0.38921028377488,-0.5730619430751348,-0.9008769989686232
1684062012081873300,11.243273681640623,-0.28525882972206074,-0.3974933624416192,-0.7275762559036135
1684062012091915400,11.25331591796875,0.04327839598952532,-0.3062887190402684,-0.7567098140236119
1684062012101957800,11.263358154296874,0.4051297902594365,-0.27265071868159163,-0.8773808479311368
1684062012112000200,11.273400634765624,0.4404201508407239,-0.3748435973803376,-1.0282326936809674
1684062012122042300,11.283442626953123,0.2945918439233037,-0.509071350049701,-1.2441904544805227
1684062012132084600,11.293485107421876,0.09750443692837561,-0.5576086044127269,-1.3147594927168291
1684062012142126800,11.303527099609376,0.3226398230440389,-0.6065759658215679,-1.7306157351321512
1684062012152169100,11.313569580078124,0.744205057476762,-0.7939968110665044,-2.1280655862407665
1684062012162211600,11.32361181640625,0.6323997972820015,-0.9639472960518882,-2.118748664891709
1684062012172253600,11.333654052734374,0.5003601311257077,-1.1188793182876604,-1.9864969254173535
1684062012182296000,11.3436962890625,0.5043531657332482,-1.3070812225338961,-1.8521451948603944
1684062012192338400,11.35373876953125,0.4401340484980699,-1.373415946962389,-1.6732031106315073
1684062012202380500,11.36378076171875,-0.21725398315521513,-0.9135503768947056,-1.0004425048938905
1684062012212422800,11.3738232421875,-0.7295082808831747,-0.22004985804907193,-0.0055663585700304235
1684062012222464900,11.383865234375,-0.7351143359517335,0.24961566931849408,0.5640101434119359
1684062012232507300,11.39390771484375,-0.5408177971322482,0.35836887361269787,0.7625923157623294
1684062012242549600,11.4039501953125,-0.07060545690787663,0.13721561428732362,0.41508555411131676
1684062012252591800,11.4139921875,0.199215829402396,-0.035647392217520994,0.2057540416962848
1684062012262634200,11.42403466796875,0.4584096671240086,-0.10578441625860077,0.004669904586660717
1684062012272676600,11.434076904296877,0.6207247972126623,-0.14035320284738959,-0.05884075163695178
1684062012282718600,11.444119140625,0.6074557305330215,-0.16362857821818597,-0.01187324517778139
1684062012292761000,11.454161376953126,0.5740540026422917,-0.23319721224995468,0.03755974755592166
1684062012302803400,11.464203857421875,0.8974773288182967,-0.12786960592686233,-0.1236131189975204
1684062012312845600,11.474245849609376,0.9784951210811204,-0.003585815394673193,-0.7554101943742324
1684062012322887900,11.484288330078124,0.8076538443530408,-0.22310066243115131,-1.2344783544305682
1684062012332930200,11.49433056640625,0.36558860552723726,-0.5951557157923424,-1.693161725883421
1684062012342972300,11.504372802734377,0.280296206584524,-0.9018869399327597,-1.0685011148439953
1684062012353014600,11.5144150390625,0.23884755389417683,-0.46404457100401497,-0.7455964087670737
1684062012363056800,11.524457275390626,0.224202871280286,0.12939262378172398,-0.38271474843319414
1684062012373099200,11.53449951171875,-0.06695646034748949,0.19734954846052322,-0.14387798292187198
1684062012383141600,11.5445419921875,-0.14873301988172002,0.2118120193153954,-0.11391544340731859
1684062012393183600,11.554583984375,0.09261542553410068,0.14792633059108756,-0.2951285837237346
1684062012403226000,11.56462646484375,0.1958468555552264,0.006049156008674202,-0.24772548678712852
1684062012413268400,11.574668701171875,0.3764353394967837,-0.13967609402257608,-0.268711328534997
1684062012423310600,11.5847109375,0.4086818696455313,-0.3779697418818311,-0.18820810329660476
1684062012433352900,11.594753173828124,0.21272635449154068,-0.5873231889008345,-0.001222014442885798
1684062012443395200,11.604795654296876,0.04170370105112296,-0.7966890335468715,0.10461461543571533
1684062012453437400,11.614837646484377,-0.14321446434901278,-0.8173513411801728,0.37827277172696605
1684062012463479600,11.624880126953125,-0.25408923613569956,-0.552362442027727,0.4452123641014635
1684062012473521800,11.634922119140626,-0.30033433440339785,-0.37081623074496706,0.6298714876922523
1684062012483564200,11.644964599609375,-0.10625767697823374,-0.25562667846665177,0.5883141756103784
1684062012493606600,11.655007080078123,-0.24099421493441434,-0.23245239265830533,0.5218130350594926
1684062012503648600,11.665049072265624,-0.35045468823630394,-0.04323577875487255,0.5970549582937076
1684062012513691100,11.675091552734376,-0.3330543042413626,-0.06758594508480935,0.44892191897204176
1684062012523733400,11.6851337890625,-0.3669610024249456,0.1657924650312913,0.4156502486464966
1684062012533775600,11.695176025390625,-0.3061119319203442,0.36489009862488364,0.48740279673635506
1684062012543817900,11.70521826171875,-0.22615122798276857,0.319654464740678,0.3139207362078952
1684062012553860000,11.715260498046876,-0.2546082735232497,0.5035095214816367,0.14738357066939847
1684062012563902400,11.725302734375,-0.22692239292598104,0.6082496642876744,-0.14131426812601386
1684062012573944800,11.73534521484375,-0.25359582903064004,0.6508750914438557,0.01864194872479908
1684062012583986900,11.74538720703125,-0.39881682390970025,0.6815643308979268,-0.024655461343136356
1684062012594029200,11.7554296875,-0.5763580799211347,0.8554964065891978,-0.04496657859464843
1684062012604071600,11.765471923828123,-0.690643310497223,0.8232240677554745,-0.17937713866546376
1684062012614113600,11.77551416015625,-0.6150532960310098,0.5157537460402271,-0.4171339870585953
1684062012624156100,11.785556396484376,-0.48857617379279766,0.2347869872984332,-0.4944620727888144
1684062012634198200,11.7955986328125,-0.4790416956201142,0.0018892288172577668,-0.49023360015977285
1684062012644240600,11.805640869140625,-0.6927894352638763,-0.12104797368858165,-0.3827207684065258
1684062012654282900,11.815683349609374,-0.8853626250764918,-0.1132421493821156,-0.2102986572978952
1684062012664325000,11.825725341796876,-1.00261211393093,0.05806446074165316,-0.09057837729871461
1684062012674367400,11.835767822265623,-1.1421926020812552,0.2517347337069321,0.24768197528968044
1684062012684409800,11.84581005859375,-1.2650102376618828,0.41345977776100956,0.5961664916108212
1684062012694451900,11.855852294921876,-1.2376625539417063,0.5558919907417486,0.6982815862167634
1684062012704494300,11.865894775390624,-0.9521331787815314,0.5052738189074449,0.5591966510662787
1684062012714536400,11.875936767578125,-0.44141447544176093,0.34611892692538543,0.33879327790541264
1684062012724578700,11.885979248046874,0.11190247551850377,0.24602508544696342,0.2523901462091407
1684062012734621100,11.896021484375,0.5024893284412592,0.199936866761534,0.19572818267433348
1684062012744663200,11.906063720703123,0.6707850695241798,0.20479869854057342,0.14823979137941562
1684062012754705600,11.91610595703125,0.664371490536983,0.1257495879706847,0.07160025830388447
1684062012764748000,11.9261484375,0.5701756478461256,0.13422584545388452,-0.07650548209601699
1684062012774790100,11.9361904296875,0.4531950952205963,0.22276782981605556,-0.05724018826079522
1684062012784832400,11.94623291015625,0.3352047204732685,0.3104772567874688,0.07499277577637586
1684062012794874600,11.95627490234375,0.13067162024923298,0.19242191310241405,0.2610445618994308
1684062012804916900,11.9663173828125,-0.09426093099905396,0.22996044147211453,0.3103782533647775
1684062012814959300,11.976359619140624,-0.22997427004083293,0.2963285446724166,0.2151967883784516
1684062012825001400,11.98640185546875,-0.26736462114433857,0.32719898221710425,0.07549977294731162
1684062012835043800,11.996444091796874,-0.23594474782223604,0.12470054618395038,-0.04052090643126969
1684062012845086100,12.006486572265626,-0.1526099442605277,-0.16957569115558874,-0.21556133040652936
1684062012855128200,12.016528564453123,-0.15010488038420605,-0.30717372898976203,-0.35086452959206643
1684062012865170600,12.026571044921877,-0.06498563287521014,-0.2098417281635958,-0.518216252319877
1684062012875212600,12.036613037109374,-0.04940295220739239,0.009307861487511244,-0.5657362938702595
1684062012885255100,12.046655517578126,-0.08362567421782978,0.19209289550913708,-0.512065529772054
1684062012895297500,12.05669775390625,-0.2300074100630754,0.1975955964166515,-0.5239512920429982
1684062012905339600,12.066739990234376,-0.3828178643463682,0.13605689997113804,-0.6751285793111531
1684062012915381900,12.0767822265625,-0.44760274894479707,0.08619689939778863,-0.7361006736100886
1684062012925424300,12.08682470703125,-0.5409452916696067,0.052620887643998325,-0.7622000574665267
1684062012935466400,12.09686669921875,-0.521984100461914,-0.04349994666641251,-0.7535194157582524
1684062012945508800,12.1069091796875,-0.4199354647777556,-0.049101829633483716,-0.6694158316737897
1684062012955550900,12.116951416015626,-0.3113927840523049,-0.06471633907189113,-0.5720859765847733
1684062012965593300,12.12699365234375,-0.2277050018262784,-0.05682849898694231,-0.3970378636783372
1684062012975635600,12.1370361328125,-0.13646674148939342,0.017668724210465187,-0.1303855180558414
1684062012985677700,12.147078125,-0.13867461684964147,0.08225631717442555,0.1531013252015763
1684062012995720100,12.15712060546875,-0.1487728357686149,0.008136749355939178,0.3054260015062543
1684062013005762600,12.167162841796875,-0.026105403855171357,-0.18239116662808752,0.24547135818736926
1684062013015804600,12.177205078125,0.14971911909807623,-0.31993579853762255,0.09824097149886808
1684062013025847000,12.187247314453124,0.25313425066725165,-0.29249000559920113,0.18448078633466303
1684062013035889100,12.19728955078125,0.2174789904636454,-0.166519164953752,0.3325001000501251
1684062013045931400,12.207331787109377,0.1673042774569137,0.030515670745121598,0.3203537463015278
1684062013055973800,12.217374267578125,0.2172247171739694,0.17292881025006238,0.20320749269249938
1684062013066015900,12.227416259765626,0.3111844063007206,0.20059108742766585,0.03327918047038855
1684062013076058300,12.237458740234375,0.4864795207761329,0.1366796494535783,0.03393793114351675
1684062013086100600,12.2475009765625,0.5764144659396807,0.11935424816652376,0.1222431660510528
1684062013096142800,12.257543212890624,0.5282558203979789,0.18305110920883422,0.2606240510723831
1684062013106185100,12.26758544921875,0.3697742223732901,0.20584011066420177,0.3128335475766158
1684062013116227200,12.277627685546875,0.21858108045684344,0.02533245088648042,0.36641502365533424
1684062013126269600,12.287669921875,0.12020242215760671,-0.2070760727091857,0.31885457035204545
1684062013136312000,12.29771240234375,-0.01218748097717868,-0.3444023131137532,0.22542917723792288
1684062013146354100,12.30775439453125,-0.24930715563466185,-0.246890068089046,-0.009891033107604738
1684062013156396500,12.317796875,-0.5094629526301893,-0.11620235456810743,-0.3377499580928606
1684062013166438800,12.327839111328124,-0.6702065466938393,-0.07987022388056164,-0.6287930606660224
1684062013176480900,12.33788134765625,-0.7100540400367765,-0.17373371118194442,-0.785667657868767
1684062013186523300,12.347923828125,-0.790830016019451,-0.38369560240415307,-0.8183065056791352
1684062013196565400,12.3579658203125,-0.9022808073937227,-0.46524238601302387,-0.8783761262533375
1684062013206607800,12.36800830078125,-0.7861323357046759,-0.22006130201252408,-0.971385359648892
1684062013216650200,12.378050537109376,-0.4454172849650607,-0.00872516635188589,-1.2610261440481716
1684062013226692300,12.3880927734375,-0.07803130163047221,0.18806171417682738,-1.3934900760529647
1684062013236734600,12.398135009765625,0.20094704633985072,0.05946540836207388,-1.4671158790958696
1684062013246777000,12.408177490234374,0.3665202855253063,-0.20631027232713242,-1.2918856144545785
1684062013256819100,12.418219482421875,0.3574284315072909,-0.29713535299423177,-0.9357844589974951
1684062013266861600,12.428261962890623,0.2088087797134436,-0.2973232267675634,-0.5144000053605784
1684062013276903600,12.438303955078124,-0.008651614287082358,-0.35538959503953516,-0.38400006294452704
1684062013286946000,12.448346435546876,-0.2064224483353977,-0.32315826422893795,-0.2122432589357775
1684062013296988300,12.458388671875,-0.38063371172159455,-0.19833564767757073,-0.061620056595763494
1684062013307030400,12.468430908203125,-0.4780700205233697,0.049437522970813254,-0.013133108655992536
1684062013317072800,12.47847314453125,-0.3813658953589463,0.12830066668153306,-0.10988759983228955
1684062013327115200,12.488515625,-0.2422050239183987,0.13062191005083165,-0.18166381113233943
1684062013337157300,12.4985576171875,-0.04189288606240625,0.04102516158515599,-0.17299705745025723
1684062013347199600,12.50860009765625,0.23118698585068423,-0.13909625994160607,-0.20268875359556987
1684062013357241800,12.51864208984375,0.5031832456686822,-0.1893072127724407,-0.15425872811025892
